timestamp,motor_state,acc_x,acc_y,acc_z,gyro_x,gyro_y,gyro_z,temp
2024-10-31T04:06:18.171918,0,0.169677734375,0.960205078125,0.3447265625,0.7786259541984732,0.11450381679389313,-0.46564885496183206,23.25941176470588
2024-10-31T04:06:18.188537,0,0.167724609375,0.9658203125,0.3359375,0.916030534351145,-0.13740458015267176,-0.4198473282442748,23.306470588235296
2024-10-31T04:06:18.204543,0,0.167724609375,0.96142578125,0.348388671875,1.0,-1.8931297709923665,-0.183206106870229,23.40058823529412
2024-10-31T04:06:18.220459,0,0.16455078125,0.960205078125,0.34130859375,0.9694656488549618,-0.4580152671755725,-0.03816793893129771,23.306470588235296
2024-10-31T04:06:18.236353,0,0.166259765625,0.966064453125,0.33984375,0.9236641221374046,-0.3893129770992366,0.17557251908396945,23.306470588235296
2024-10-31T04:06:18.252245,0,0.160400390625,0.962890625,0.348388671875,0.7175572519083969,-0.7404580152671756,-0.21374045801526717,23.25941176470588
2024-10-31T04:06:18.268135,0,0.154052734375,0.957763671875,0.34521484375,0.8702290076335878,-0.916030534351145,-0.17557251908396945,23.306470588235296
2024-10-31T04:06:18.284032,0,0.156005859375,0.955810546875,0.34765625,0.8320610687022901,-0.8625954198473282,-0.26717557251908397,23.21235294117647
2024-10-31T04:06:18.299922,0,0.1591796875,0.959228515625,0.342529296875,0.7633587786259542,-1.015267175572519,-0.16030534351145037,23.306470588235296
2024-10-31T04:06:18.315809,0,0.154052734375,0.9560546875,0.33837890625,1.0076335877862594,-0.5114503816793893,-0.06870229007633588,23.353529411764708
2024-10-31T04:06:18.331699,0,0.16455078125,0.95947265625,0.34228515625,1.0534351145038168,-0.5572519083969466,-0.15267175572519084,23.306470588235296
2024-10-31T04:06:18.347594,0,0.161376953125,0.956298828125,0.35888671875,1.16793893129771,-0.1297709923664122,-0.13740458015267176,23.306470588235296
2024-10-31T04:06:18.363481,0,0.16552734375,0.96484375,0.35400390625,1.0458015267175573,1.9389312977099236,-0.25190839694656486,23.25941176470588
2024-10-31T04:06:18.379368,0,0.174072265625,0.962158203125,0.357177734375,0.7633587786259542,-0.12213740458015267,-0.19083969465648856,23.353529411764708
2024-10-31T04:06:18.395258,0,0.1640625,0.96435546875,0.343994140625,0.7251908396946565,-0.37404580152671757,-0.5877862595419847,23.306470588235296
2024-10-31T04:06:18.411146,0,0.167236328125,0.962158203125,0.337158203125,0.7786259541984732,-0.4732824427480916,-0.20610687022900764,23.306470588235296
2024-10-31T04:06:18.427033,0,0.166748046875,0.962158203125,0.336669921875,0.8625954198473282,-0.8091603053435115,-0.4351145038167939,23.25941176470588
2024-10-31T04:06:18.442929,0,0.165771484375,0.96044921875,0.343505859375,0.8396946564885496,-0.8091603053435115,-0.1984732824427481,23.353529411764708
2024-10-31T04:06:18.458818,0,0.151123046875,0.956787109375,0.34375,1.0534351145038168,-0.9541984732824428,-1.8931297709923665,23.306470588235296
2024-10-31T04:06:18.474703,0,0.17041015625,0.9599609375,0.344970703125,1.0076335877862594,-0.9312977099236641,-0.11450381679389313,23.306470588235296
2024-10-31T04:06:18.490589,0,0.16015625,0.9560546875,0.3330078125,0.9923664122137404,-0.5343511450381679,0.16030534351145037,23.353529411764708
2024-10-31T04:06:18.506475,0,0.166748046875,0.955322265625,0.3466796875,0.9770992366412213,-0.4961832061068702,-0.2595419847328244,23.306470588235296
2024-10-31T04:06:18.522361,0,0.167236328125,0.960205078125,0.339111328125,0.9694656488549618,-0.13740458015267176,-0.16793893129770993,23.306470588235296
2024-10-31T04:06:18.538245,0,0.171875,0.961181640625,0.338134765625,0.7786259541984732,-0.2595419847328244,-0.13740458015267176,23.25941176470588
2024-10-31T04:06:18.554132,0,0.171142578125,0.961669921875,0.342529296875,0.732824427480916,-0.2900763358778626,-0.35877862595419846,23.353529411764708
2024-10-31T04:06:18.570019,0,0.167236328125,0.96435546875,0.34716796875,0.6412213740458015,-0.42748091603053434,-0.183206106870229,23.40058823529412
2024-10-31T04:06:18.585906,0,0.163818359375,0.96240234375,0.34033203125,0.7938931297709924,-0.6183206106870229,-0.13740458015267176,23.25941176470588
2024-10-31T04:06:18.601792,0,0.159912109375,0.960205078125,0.347900390625,0.9618320610687023,-0.7862595419847328,0.21374045801526717,23.25941176470588
2024-10-31T04:06:18.617678,0,0.158447265625,0.958740234375,0.35400390625,1.0458015267175573,-0.9923664122137404,-0.07633587786259542,23.306470588235296
2024-10-31T04:06:18.633565,0,0.169189453125,0.94189453125,0.342529296875,0.9618320610687023,-0.9083969465648855,0.07633587786259542,23.21235294117647
2024-10-31T04:06:18.649451,0,0.1689453125,0.960205078125,0.3349609375,1.0,-0.8091603053435115,-0.183206106870229,23.25941176470588
2024-10-31T04:06:18.665336,0,0.160400390625,0.95166015625,0.34619140625,0.9541984732824428,-0.4732824427480916,-1.900763358778626,23.353529411764708
2024-10-31T04:06:18.681226,0,0.1845703125,0.9560546875,0.3349609375,0.8320610687022901,-0.2595419847328244,-0.37404580152671757,23.306470588235296
2024-10-31T04:06:18.697120,0,0.167236328125,0.961181640625,0.341552734375,0.9618320610687023,-0.05343511450381679,-0.3816793893129771,23.306470588235296
2024-10-31T04:06:18.713009,0,0.16162109375,0.959228515625,0.338134765625,0.7938931297709924,-1.9389312977099236,-0.16793893129770993,23.353529411764708
2024-10-31T04:06:18.728896,0,0.1650390625,0.965087890625,0.34619140625,0.8320610687022901,-0.4732824427480916,-0.4122137404580153,23.306470588235296
2024-10-31T04:06:18.744786,0,0.1630859375,0.958984375,0.33935546875,0.6870229007633588,-0.24427480916030533,-0.19083969465648856,23.40058823529412
2024-10-31T04:06:18.760673,0,0.16748046875,0.96337890625,0.34521484375,0.7557251908396947,-0.549618320610687,-0.3053435114503817,23.25941176470588
2024-10-31T04:06:18.776560,0,0.162841796875,0.964599609375,0.342041015625,0.916030534351145,-0.7480916030534351,0.0,23.353529411764708
2024-10-31T04:06:18.792446,0,0.155029296875,0.958984375,0.328369140625,0.9694656488549618,-1.1984732824427482,-0.22900763358778625,23.306470588235296
2024-10-31T04:06:18.808336,0,0.162109375,0.961181640625,0.341796875,0.9770992366412213,-0.8473282442748091,-0.1450381679389313,23.306470588235296
2024-10-31T04:06:18.824223,0,0.16064453125,0.95849609375,0.357421875,0.8625954198473282,-0.8320610687022901,-0.19083969465648856,23.353529411764708
2024-10-31T04:06:18.840107,0,0.16357421875,0.953125,0.337158203125,0.9618320610687023,-0.4732824427480916,-0.1984732824427481,23.306470588235296
2024-10-31T04:06:18.855993,0,0.165771484375,0.959228515625,0.359130859375,0.8244274809160306,-0.22137404580152673,-0.4351145038167939,23.306470588235296
2024-10-31T04:06:18.871879,0,0.1669921875,0.96044921875,0.34423828125,0.9923664122137404,-0.12213740458015267,-0.5114503816793893,23.25941176470588
2024-10-31T04:06:18.887766,0,0.18505859375,0.958251953125,0.337890625,1.0229007633587786,-0.07633587786259542,-0.2824427480916031,23.353529411764708
2024-10-31T04:06:18.903651,0,0.16845703125,0.963623046875,0.3447265625,0.9312977099236641,-0.22900763358778625,-0.46564885496183206,23.306470588235296
2024-10-31T04:06:18.919537,0,0.159423828125,0.96337890625,0.346435546875,1.015267175572519,-0.5419847328244275,-0.2595419847328244,23.306470588235296
2024-10-31T04:06:18.935424,0,0.167236328125,0.962646484375,0.34423828125,0.8778625954198473,-0.8549618320610687,1.916030534351145,23.353529411764708
2024-10-31T04:06:18.951309,0,0.16455078125,0.96142578125,0.34765625,0.8091603053435115,-0.6870229007633588,-0.022900763358778626,23.306470588235296
2024-10-31T04:06:18.967192,0,0.161865234375,0.958251953125,0.345703125,0.732824427480916,-1.0687022900763359,-0.04580152671755725,23.306470588235296
2024-10-31T04:06:18.983078,0,0.16162109375,0.958251953125,0.3447265625,0.8931297709923665,-0.8625954198473282,-0.10687022900763359,23.25941176470588
2024-10-31T04:06:18.998964,0,0.165771484375,0.953857421875,0.3369140625,1.0610687022900764,-0.8473282442748091,-0.13740458015267176,23.353529411764708
2024-10-31T04:06:19.014851,0,0.1630859375,0.952392578125,0.335205078125,0.9541984732824428,-0.31297709923664124,-0.3435114503816794,23.306470588235296
2024-10-31T04:06:19.030737,0,0.16552734375,0.956787109375,0.333740234375,1.1145038167938932,1.8473282442748091,-0.24427480916030533,23.21235294117647
2024-10-31T04:06:19.046644,0,0.16796875,0.96240234375,0.3291015625,0.7022900763358778,-0.030534351145038167,-0.3969465648854962,23.25941176470588
2024-10-31T04:06:19.062532,0,0.172607421875,0.9560546875,0.353515625,0.8931297709923665,-0.09923664122137404,-0.20610687022900764,23.25941176470588
2024-10-31T04:06:19.078433,0,0.16796875,0.96533203125,0.354248046875,0.8549618320610687,-0.5343511450381679,-0.21374045801526717,23.40058823529412
2024-10-31T04:06:19.094330,0,0.168212890625,0.9619140625,0.356689453125,0.816793893129771,-0.5648854961832062,-0.32061068702290074,23.306470588235296
2024-10-31T04:06:19.110216,0,0.166748046875,0.965087890625,0.3388671875,0.8702290076335878,-0.8702290076335878,-0.2748091603053435,23.25941176470588
2024-10-31T04:06:19.126102,0,0.164794921875,0.9609375,0.34423828125,0.8091603053435115,-1.0458015267175573,-0.3511450381679389,23.353529411764708
2024-10-31T04:06:19.142069,0,0.15185546875,0.957275390625,0.35009765625,0.7404580152671756,-1.083969465648855,0.007633587786259542,23.165294117647058
2024-10-31T04:06:19.157975,0,0.169921875,0.940673828125,0.340576171875,0.9007633587786259,-1.0687022900763359,-0.22900763358778625,23.306470588235296
2024-10-31T04:06:19.173865,0,0.164794921875,0.953369140625,0.3369140625,0.9770992366412213,-0.5190839694656488,-0.3893129770992366,23.306470588235296
2024-10-31T04:06:19.189755,0,0.16748046875,0.96142578125,0.33984375,0.9770992366412213,-0.42748091603053434,-0.22137404580152673,23.353529411764708
2024-10-31T04:06:19.205640,0,0.166748046875,0.95361328125,0.336181640625,0.7938931297709924,-0.11450381679389313,-0.17557251908396945,23.306470588235296
2024-10-31T04:06:19.221525,0,0.165283203125,0.964111328125,0.338134765625,0.7786259541984732,-0.183206106870229,-0.37404580152671757,23.306470588235296
2024-10-31T04:06:19.237411,0,0.16455078125,0.967041015625,0.34765625,0.7557251908396947,-0.1984732824427481,-0.4580152671755725,23.353529411764708
2024-10-31T04:06:19.253297,0,0.16650390625,0.961181640625,0.341552734375,0.8473282442748091,-0.3282442748091603,-0.3053435114503817,23.25941176470588
2024-10-31T04:06:19.269183,0,0.172607421875,0.95947265625,0.328369140625,0.8091603053435115,-0.4580152671755725,-0.4961832061068702,23.306470588235296
2024-10-31T04:06:19.285068,0,0.16162109375,0.962890625,0.3486328125,1.0381679389312977,-0.8549618320610687,-0.32061068702290074,23.306470588235296
2024-10-31T04:06:19.300954,0,0.16064453125,0.962646484375,0.34326171875,0.8854961832061069,-0.7633587786259542,-0.3816793893129771,23.25941176470588
2024-10-31T04:06:19.316842,0,0.162353515625,0.95654296875,0.348876953125,0.9312977099236641,-0.5954198473282443,-0.26717557251908397,23.353529411764708
2024-10-31T04:06:19.332732,0,0.156494140625,0.955322265625,0.331298828125,1.0534351145038168,-0.7862595419847328,1.8549618320610688,23.306470588235296
2024-10-31T04:06:19.348620,0,0.161376953125,0.960205078125,0.341552734375,0.9923664122137404,-0.48854961832061067,1.900763358778626,23.25941176470588
2024-10-31T04:06:19.364507,0,0.165771484375,0.96826171875,0.341796875,0.6793893129770993,-0.31297709923664124,-0.42748091603053434,23.353529411764708
2024-10-31T04:06:19.380391,0,0.16796875,0.959716796875,0.33447265625,0.7557251908396947,0.007633587786259542,-0.183206106870229,23.306470588235296
2024-10-31T04:06:19.396277,0,0.163818359375,0.961181640625,0.340576171875,0.9694656488549618,-0.03816793893129771,-0.2366412213740458,23.306470588235296
2024-10-31T04:06:19.412163,0,0.169677734375,0.9619140625,0.34423828125,0.9618320610687023,-0.2824427480916031,-0.11450381679389313,23.25941176470588
2024-10-31T04:06:19.428050,0,0.159423828125,0.964599609375,0.3427734375,0.9923664122137404,-0.3969465648854962,-0.06870229007633588,23.40058823529412
2024-10-31T04:06:19.443937,0,0.161865234375,0.964111328125,0.340087890625,1.0305343511450382,-0.5801526717557252,-0.1984732824427481,23.40058823529412
2024-10-31T04:06:19.459823,0,0.165283203125,0.96044921875,0.3408203125,0.8702290076335878,-0.7938931297709924,-0.061068702290076333,23.353529411764708
2024-10-31T04:06:19.475709,0,0.156005859375,0.965087890625,0.359130859375,0.8015267175572519,-1.1297709923664123,-0.030534351145038167,23.353529411764708
2024-10-31T04:06:19.491600,0,0.156982421875,0.956787109375,0.330078125,0.8854961832061069,-0.9236641221374046,0.12213740458015267,23.306470588235296
2024-10-31T04:06:19.507486,0,0.165771484375,0.955322265625,0.33935546875,0.7938931297709924,-0.7480916030534351,-0.24427480916030533,23.21235294117647
2024-10-31T04:06:19.523371,0,0.164794921875,0.957763671875,0.3369140625,0.8854961832061069,-0.40458015267175573,-0.08396946564885496,23.25941176470588
2024-10-31T04:06:19.539258,0,0.168701171875,0.954833984375,0.329833984375,0.8931297709923665,-0.31297709923664124,-0.3435114503816794,23.25941176470588
2024-10-31T04:06:19.555144,0,0.157470703125,0.962158203125,0.33837890625,0.9847328244274809,0.12213740458015267,-0.1297709923664122,23.306470588235296
2024-10-31T04:06:19.571031,0,0.170166015625,0.966796875,0.339599609375,0.8854961832061069,-0.0916030534351145,-0.15267175572519084,23.353529411764708
2024-10-31T04:06:19.586917,0,0.1650390625,0.977783203125,0.342529296875,0.9465648854961832,-0.21374045801526717,-0.366412213740458,23.25941176470588
2024-10-31T04:06:19.602802,0,0.169677734375,0.96142578125,0.341796875,0.8854961832061069,-0.35877862595419846,-1.9541984732824427,23.21235294117647
2024-10-31T04:06:19.618689,0,0.16650390625,0.9609375,0.33642578125,0.8854961832061069,-0.8473282442748091,-0.3435114503816794,23.306470588235296
2024-10-31T04:06:19.634575,0,0.165771484375,0.961181640625,0.342529296875,0.8320610687022901,-0.9389312977099237,-0.04580152671755725,23.25941176470588
2024-10-31T04:06:19.650460,0,0.154541015625,0.958984375,0.343017578125,0.9236641221374046,-1.0763358778625953,-0.366412213740458,23.306470588235296
2024-10-31T04:06:19.666346,0,0.1611328125,0.951904296875,0.344482421875,0.9618320610687023,-0.8091603053435115,-0.061068702290076333,23.306470588235296
2024-10-31T04:06:19.682234,0,0.15771484375,0.953369140625,0.343994140625,0.9236641221374046,-0.7557251908396947,-0.20610687022900764,23.353529411764708
2024-10-31T04:06:19.698120,0,0.171142578125,0.96142578125,0.337890625,1.0763358778625953,-0.3816793893129771,-0.1984732824427481,23.353529411764708
2024-10-31T04:06:19.714006,0,0.1640625,0.958251953125,0.33837890625,0.916030534351145,1.9083969465648856,-0.21374045801526717,23.21235294117647
2024-10-31T04:06:19.729892,0,0.1640625,0.958984375,0.34375,0.9465648854961832,-0.09923664122137404,-0.40458015267175573,23.306470588235296
2024-10-31T04:06:19.745776,0,0.167236328125,0.964111328125,0.332763671875,0.8549618320610687,-0.007633587786259542,-0.183206106870229,23.25941176470588
2024-10-31T04:06:19.761667,0,0.172119140625,0.9658203125,0.35302734375,0.7862595419847328,-0.3435114503816794,-0.4961832061068702,23.306470588235296
2024-10-31T04:06:19.777553,0,0.171630859375,0.9619140625,0.34130859375,0.8473282442748091,-0.6335877862595419,-0.20610687022900764,23.306470588235296
2024-10-31T04:06:19.793439,0,0.15966796875,0.96044921875,0.345458984375,0.7022900763358778,-0.9236641221374046,-0.3816793893129771,23.353529411764708
2024-10-31T04:06:19.809325,0,0.1650390625,0.93994140625,0.341796875,0.9694656488549618,-0.9770992366412213,-0.05343511450381679,23.353529411764708
2024-10-31T04:06:19.825212,0,0.165771484375,0.957275390625,0.3369140625,0.9083969465648855,-0.9389312977099237,-0.26717557251908397,23.306470588235296
2024-10-31T04:06:19.841099,0,0.159423828125,0.953125,0.341064453125,1.0763358778625953,-0.9312977099236641,-0.183206106870229,23.25941176470588
2024-10-31T04:06:19.856987,0,0.166259765625,0.955078125,0.337646484375,1.1297709923664123,-0.6030534351145038,0.07633587786259542,23.353529411764708
2024-10-31T04:06:19.872874,0,0.16455078125,0.962646484375,0.34521484375,0.8473282442748091,-0.3893129770992366,-0.45038167938931295,23.306470588235296
2024-10-31T04:06:19.888760,0,0.168212890625,0.96533203125,0.350830078125,0.8549618320610687,0.13740458015267176,0.16793893129770993,23.40058823529412
2024-10-31T04:06:19.904657,0,0.166748046875,0.967041015625,0.339599609375,0.7709923664122137,-0.183206106870229,-0.549618320610687,23.25941176470588
2024-10-31T04:06:19.920544,0,0.171875,0.955078125,0.33056640625,0.9007633587786259,-0.183206106870229,-0.40458015267175573,23.25941176470588
2024-10-31T04:06:19.936429,0,0.161376953125,0.96533203125,0.354736328125,0.9312977099236641,-0.4122137404580153,-0.21374045801526717,23.40058823529412
2024-10-31T04:06:19.952316,0,0.166259765625,0.96240234375,0.334228515625,0.9618320610687023,-0.7099236641221374,-0.32061068702290074,23.306470588235296
2024-10-31T04:06:19.968202,0,0.17041015625,0.96142578125,0.338134765625,1.0076335877862594,-0.9007633587786259,-0.2366412213740458,23.353529411764708
2024-10-31T04:06:19.984089,0,0.1591796875,0.962890625,0.34326171875,1.0916030534351144,-0.9770992366412213,-0.07633587786259542,23.306470588235296
2024-10-31T04:06:19.999975,0,0.159912109375,0.96142578125,0.34765625,0.9465648854961832,-0.9465648854961832,1.916030534351145,23.306470588235296
2024-10-31T04:06:20.015862,0,0.16357421875,0.953857421875,0.334716796875,0.9236641221374046,-0.8778625954198473,-0.2595419847328244,23.44764705882353
2024-10-31T04:06:20.031751,0,0.165283203125,0.957763671875,0.337646484375,0.8625954198473282,-0.5343511450381679,-0.16030534351145037,23.44764705882353
2024-10-31T04:06:20.047638,0,0.15966796875,0.957763671875,0.34375,0.8549618320610687,-0.26717557251908397,-0.20610687022900764,23.306470588235296
2024-10-31T04:06:20.063523,0,0.183349609375,0.9619140625,0.341796875,0.7786259541984732,-0.0916030534351145,-0.31297709923664124,23.353529411764708
2024-10-31T04:06:20.079421,0,0.168212890625,0.957763671875,0.335205078125,0.9083969465648855,-0.08396946564885496,-0.6183206106870229,23.353529411764708
2024-10-31T04:06:20.095318,0,0.171142578125,0.965087890625,0.34130859375,0.8778625954198473,-0.12213740458015267,-0.26717557251908397,23.306470588235296
2024-10-31T04:06:20.111208,0,0.162841796875,0.962646484375,0.3447265625,1.015267175572519,-0.33587786259541985,-0.26717557251908397,23.306470588235296
2024-10-31T04:06:20.127097,0,0.162841796875,0.96240234375,0.347412109375,1.0381679389312977,-0.7709923664122137,-0.3435114503816794,23.25941176470588
2024-10-31T04:06:20.142984,0,0.15576171875,0.960205078125,0.342529296875,0.9007633587786259,-0.8396946564885496,-1.9465648854961832,23.353529411764708
2024-10-31T04:06:20.158869,0,0.154052734375,0.9599609375,0.341552734375,0.9847328244274809,-0.9923664122137404,-0.24427480916030533,23.306470588235296
2024-10-31T04:06:20.174757,0,0.14892578125,0.95751953125,0.332763671875,0.8015267175572519,-0.8320610687022901,-0.1984732824427481,23.306470588235296
2024-10-31T04:06:20.190644,0,0.166015625,0.9541015625,0.33837890625,0.8473282442748091,-0.9083969465648855,-0.1450381679389313,23.353529411764708
2024-10-31T04:06:20.206528,0,0.16650390625,0.955322265625,0.338134765625,1.0305343511450382,-0.5267175572519084,-0.11450381679389313,23.21235294117647
2024-10-31T04:06:20.222415,0,0.158203125,0.962890625,0.34033203125,0.9312977099236641,-0.20610687022900764,-0.1984732824427481,23.21235294117647
2024-10-31T04:06:20.238301,0,0.170166015625,0.955322265625,0.337646484375,1.0,-0.17557251908396945,-0.07633587786259542,23.25941176470588
2024-10-31T04:06:20.254188,0,0.166748046875,0.958740234375,0.343994140625,0.8396946564885496,-0.05343511450381679,-0.061068702290076333,23.353529411764708
2024-10-31T04:06:20.270075,0,0.167724609375,0.9658203125,0.340087890625,0.7404580152671756,-0.25190839694656486,-0.2900763358778626,23.306470588235296
2024-10-31T04:06:20.285960,0,0.167724609375,0.9619140625,0.34326171875,0.9389312977099237,-0.5190839694656488,-0.33587786259541985,23.40058823529412
2024-10-31T04:06:20.301846,0,0.16552734375,0.97265625,0.34033203125,0.8396946564885496,-0.7404580152671756,-0.2366412213740458,23.353529411764708
2024-10-31T04:06:20.317734,0,0.160400390625,0.960205078125,0.34228515625,0.9618320610687023,-0.8625954198473282,1.83206106870229,23.306470588235296
2024-10-31T04:06:20.333618,0,0.15478515625,0.95556640625,0.343505859375,0.816793893129771,-1.0229007633587786,-0.21374045801526717,23.306470588235296
2024-10-31T04:06:20.349504,0,0.1630859375,0.948486328125,0.339111328125,1.0076335877862594,-0.8549618320610687,0.015267175572519083,23.25941176470588
2024-10-31T04:06:20.365390,0,0.16552734375,0.954833984375,0.33544921875,0.8778625954198473,-0.6183206106870229,-0.31297709923664124,23.353529411764708
2024-10-31T04:06:20.381274,0,0.167236328125,0.9521484375,0.340576171875,0.9236641221374046,-0.31297709923664124,-0.2900763358778626,23.306470588235296
2024-10-31T04:06:20.397159,0,0.168212890625,0.95751953125,0.353515625,0.8625954198473282,0.061068702290076333,-0.32061068702290074,23.353529411764708
2024-10-31T04:06:20.413044,0,0.165283203125,0.962158203125,0.3349609375,0.6870229007633588,-1.8854961832061068,0.022900763358778626,23.353529411764708
2024-10-31T04:06:20.428931,0,0.1630859375,0.96142578125,0.337646484375,0.8778625954198473,-1.9389312977099236,-0.25190839694656486,23.306470588235296
2024-10-31T04:06:20.444814,0,0.16650390625,0.9638671875,0.3486328125,0.6870229007633588,-0.366412213740458,-0.4351145038167939,23.40058823529412
2024-10-31T04:06:20.460700,0,0.147705078125,0.963623046875,0.346923828125,0.7557251908396947,-0.5267175572519084,-0.1984732824427481,23.353529411764708
2024-10-31T04:06:20.476587,0,0.16357421875,0.961181640625,0.3525390625,0.7786259541984732,-1.1374045801526718,-0.11450381679389313,23.306470588235296
2024-10-31T04:06:20.492470,0,0.161376953125,0.957763671875,0.341064453125,0.9389312977099237,-1.0763358778625953,0.11450381679389313,23.306470588235296
2024-10-31T04:06:20.508356,0,0.1630859375,0.95458984375,0.3447265625,0.9083969465648855,-1.0,-0.35877862595419846,23.25941176470588
2024-10-31T04:06:20.524241,0,0.1640625,0.950439453125,0.333740234375,0.9847328244274809,-0.7022900763358778,-0.0916030534351145,23.21235294117647
2024-10-31T04:06:20.540127,0,0.165771484375,0.95849609375,0.33837890625,0.8778625954198473,-0.7175572519083969,-0.3511450381679389,23.306470588235296
2024-10-31T04:06:20.556014,0,0.16845703125,0.95556640625,0.3408203125,0.8320610687022901,-0.183206106870229,-0.45038167938931295,23.25941176470588
2024-10-31T04:06:20.571903,0,0.1630859375,0.95751953125,0.34130859375,1.015267175572519,0.007633587786259542,-0.3511450381679389,23.25941176470588
2024-10-31T04:06:20.587789,0,0.158935546875,0.964111328125,0.3427734375,0.732824427480916,-0.0916030534351145,-0.6793893129770993,23.306470588235296
2024-10-31T04:06:20.603674,0,0.166748046875,0.958984375,0.358154296875,0.9389312977099237,-0.20610687022900764,-0.08396946564885496,23.306470588235296
2024-10-31T04:06:20.619558,0,0.169921875,0.965087890625,0.339599609375,0.8244274809160306,-0.648854961832061,-0.22900763358778625,23.353529411764708
2024-10-31T04:06:20.635445,0,0.1640625,0.962158203125,0.3330078125,0.8396946564885496,-0.8396946564885496,-0.21374045801526717,23.306470588235296
2024-10-31T04:06:20.651332,0,0.1552734375,0.96337890625,0.349609375,0.8625954198473282,-0.916030534351145,0.061068702290076333,23.21235294117647
2024-10-31T04:06:20.667215,0,0.156982421875,0.95947265625,0.340087890625,0.9312977099236641,-0.9389312977099237,-0.15267175572519084,23.353529411764708
2024-10-31T04:06:20.683101,0,0.15673828125,0.9599609375,0.34521484375,0.9236641221374046,-0.9770992366412213,-0.24427480916030533,23.25941176470588
2024-10-31T04:06:20.698986,0,0.168212890625,0.952392578125,0.340087890625,0.8091603053435115,-0.6030534351145038,-0.2748091603053435,23.306470588235296
2024-10-31T04:06:20.714873,0,0.1708984375,0.958251953125,0.332763671875,0.816793893129771,-0.35877862595419846,-0.0916030534351145,23.25941176470588
2024-10-31T04:06:20.730756,0,0.1630859375,0.96044921875,0.341552734375,0.7786259541984732,-0.1984732824427481,-0.3969465648854962,23.25941176470588
2024-10-31T04:06:20.746642,0,0.165771484375,0.958251953125,0.341796875,0.8625954198473282,0.12213740458015267,-0.13740458015267176,23.306470588235296
2024-10-31T04:06:20.762541,0,0.169189453125,0.9619140625,0.346435546875,0.916030534351145,-0.13740458015267176,-0.4122137404580153,23.306470588235296
2024-10-31T04:06:20.778430,0,0.170166015625,0.966796875,0.34130859375,0.9541984732824428,-0.20610687022900764,-0.11450381679389313,23.353529411764708
2024-10-31T04:06:20.794315,0,0.1650390625,0.964111328125,0.34912109375,0.9007633587786259,-0.5267175572519084,-0.22900763358778625,23.25941176470588
2024-10-31T04:06:20.810200,0,0.160400390625,0.9619140625,0.344970703125,0.8702290076335878,-0.8396946564885496,-0.15267175572519084,23.40058823529412
2024-10-31T04:06:20.826086,0,0.1650390625,0.957763671875,0.338134765625,0.8854961832061069,-1.0916030534351144,-0.13740458015267176,23.25941176470588
2024-10-31T04:06:20.841974,0,0.164794921875,0.960693359375,0.3369140625,0.8931297709923665,-1.1221374045801527,-0.21374045801526717,23.25941176470588
2024-10-31T04:06:20.857858,0,0.15478515625,0.9384765625,0.341796875,0.8931297709923665,-0.9236641221374046,-0.007633587786259542,23.306470588235296
2024-10-31T04:06:20.873744,0,0.156494140625,0.967529296875,0.34326171875,0.8931297709923665,-0.8015267175572519,-0.2366412213740458,23.40058823529412
2024-10-31T04:06:20.889630,0,0.163818359375,0.953857421875,0.341796875,1.0,-0.2824427480916031,-0.22137404580152673,23.353529411764708
2024-10-31T04:06:20.905512,0,0.183349609375,0.953125,0.34130859375,0.9694656488549618,-0.17557251908396945,-0.0916030534351145,23.21235294117647
2024-10-31T04:06:20.921399,0,0.16455078125,0.958251953125,0.3408203125,1.0305343511450382,0.015267175572519083,-0.19083969465648856,23.40058823529412
2024-10-31T04:06:20.937285,0,0.1796875,0.962646484375,0.349365234375,0.9847328244274809,-0.19083969465648856,-0.2900763358778626,23.44764705882353
2024-10-31T04:06:20.953170,0,0.169921875,0.96630859375,0.3408203125,0.8244274809160306,-0.1297709923664122,-0.13740458015267176,23.306470588235296
2024-10-31T04:06:20.969055,0,0.1630859375,0.966064453125,0.338623046875,0.9236641221374046,-0.5190839694656488,-0.24427480916030533,23.306470588235296
2024-10-31T04:06:20.984942,0,0.1640625,0.96533203125,0.341064453125,0.8244274809160306,-0.9007633587786259,-0.20610687022900764,23.40058823529412
2024-10-31T04:06:21.000827,0,0.1591796875,0.95947265625,0.3525390625,0.9007633587786259,-1.1145038167938932,-0.1450381679389313,23.353529411764708
2024-10-31T04:06:21.016713,0,0.15966796875,0.959228515625,0.3427734375,1.083969465648855,-0.9923664122137404,-0.22900763358778625,23.306470588235296
2024-10-31T04:06:21.032595,0,0.162109375,0.950439453125,0.34130859375,1.0381679389312977,-0.7480916030534351,-0.19083969465648856,23.306470588235296
2024-10-31T04:06:21.048481,0,0.166748046875,0.9375,0.3408203125,0.9236641221374046,-0.9083969465648855,-0.1984732824427481,23.44764705882353
2024-10-31T04:06:21.064366,0,0.1611328125,0.957275390625,0.335693359375,0.9389312977099237,-0.25190839694656486,-0.25190839694656486,23.353529411764708
2024-10-31T04:06:21.080262,0,0.167724609375,0.954833984375,0.341796875,0.9465648854961832,1.83206106870229,-0.25190839694656486,23.306470588235296
2024-10-31T04:06:21.096164,0,0.16943359375,0.9619140625,0.343505859375,0.9083969465648855,-1.900763358778626,-0.25190839694656486,23.306470588235296
2024-10-31T04:06:21.112052,0,0.16796875,0.963623046875,0.34130859375,0.8091603053435115,-0.16030534351145037,-0.1984732824427481,23.25941176470588
2024-10-31T04:06:21.127938,0,0.1591796875,0.9580078125,0.340087890625,0.7938931297709924,-0.2748091603053435,-0.21374045801526717,23.306470588235296
2024-10-31T04:06:21.143821,0,0.1826171875,0.962890625,0.336181640625,0.8015267175572519,-0.7709923664122137,-0.04580152671755725,23.306470588235296
2024-10-31T04:06:21.159707,0,0.1640625,0.961669921875,0.341796875,0.8625954198473282,-0.8549618320610687,-0.03816793893129771,23.353529411764708
2024-10-31T04:06:21.175594,0,0.16162109375,0.960205078125,0.3466796875,0.9694656488549618,-0.9923664122137404,-0.366412213740458,23.40058823529412
2024-10-31T04:06:21.191480,0,0.157470703125,0.957763671875,0.3466796875,0.8625954198473282,-1.0610687022900764,-0.3969465648854962,23.306470588235296
2024-10-31T04:06:21.207367,0,0.159912109375,0.952392578125,0.337646484375,0.9007633587786259,-0.9007633587786259,-0.24427480916030533,23.21235294117647
2024-10-31T04:06:21.223253,0,0.1640625,0.960205078125,0.3388671875,0.9847328244274809,-0.5954198473282443,-0.25190839694656486,23.25941176470588
2024-10-31T04:06:21.239138,0,0.17138671875,0.96142578125,0.34033203125,1.0,-0.11450381679389313,-0.2824427480916031,23.21235294117647
2024-10-31T04:06:21.255024,0,0.16455078125,0.959716796875,0.3369140625,0.8396946564885496,1.8854961832061068,-0.1450381679389313,23.40058823529412
2024-10-31T04:06:21.270910,0,0.166748046875,0.966064453125,0.34375,0.8549618320610687,-0.16030534351145037,-0.31297709923664124,23.353529411764708
2024-10-31T04:06:21.286797,0,0.171142578125,0.96240234375,0.346923828125,0.9083969465648855,-0.2366412213740458,-0.32061068702290074,23.353529411764708
2024-10-31T04:06:21.302684,0,0.16748046875,0.957275390625,0.355712890625,0.9618320610687023,-0.5572519083969466,-0.4732824427480916,23.306470588235296
2024-10-31T04:06:21.318568,0,0.15966796875,0.964111328125,0.343994140625,0.9312977099236641,-0.7251908396946565,-0.26717557251908397,23.25941176470588
2024-10-31T04:06:21.334454,0,0.16357421875,0.9609375,0.34521484375,0.9465648854961832,-1.0305343511450382,-0.2900763358778626,23.353529411764708
2024-10-31T04:06:21.350339,0,0.166748046875,0.9619140625,0.336181640625,0.9618320610687023,-1.015267175572519,-0.08396946564885496,23.40058823529412
2024-10-31T04:06:21.366225,0,0.169677734375,0.958984375,0.345458984375,0.8931297709923665,-1.0381679389312977,-0.29770992366412213,23.306470588235296
2024-10-31T04:06:21.382111,0,0.17138671875,0.95556640625,0.332275390625,1.0916030534351144,-0.7557251908396947,-0.09923664122137404,23.353529411764708
2024-10-31T04:06:21.397998,0,0.163818359375,0.954833984375,0.34130859375,0.9465648854961832,-0.5801526717557252,-0.3053435114503817,23.306470588235296
2024-10-31T04:06:21.413885,0,0.166748046875,0.96142578125,0.34814453125,0.8396946564885496,1.8473282442748091,-0.4732824427480916,23.40058823529412
2024-10-31T04:06:21.429771,0,0.16748046875,0.954833984375,0.341064453125,0.7786259541984732,0.06870229007633588,-0.25190839694656486,23.25941176470588
2024-10-31T04:06:21.445656,0,0.166259765625,0.958984375,0.35888671875,0.7633587786259542,-0.08396946564885496,-0.22137404580152673,23.353529411764708
2024-10-31T04:06:21.461543,0,0.167724609375,0.961181640625,0.35498046875,0.9541984732824428,-0.29770992366412213,-0.3282442748091603,23.40058823529412
2024-10-31T04:06:21.477429,0,0.175537109375,0.963623046875,0.34033203125,0.816793893129771,-0.6030534351145038,-0.40458015267175573,23.306470588235296
2024-10-31T04:06:21.493312,0,0.160400390625,0.96435546875,0.353271484375,0.9465648854961832,-0.8854961832061069,-1.9465648854961832,23.353529411764708
2024-10-31T04:06:21.509198,0,0.157470703125,0.95849609375,0.342529296875,0.9389312977099237,-1.0610687022900764,-0.4580152671755725,23.21235294117647
2024-10-31T04:06:21.525084,0,0.1708984375,0.9599609375,0.34228515625,0.9770992366412213,-1.0305343511450382,-0.04580152671755725,23.306470588235296
2024-10-31T04:06:21.540970,0,0.169921875,0.9560546875,0.33984375,0.8015267175572519,-0.9694656488549618,-0.31297709923664124,23.353529411764708
2024-10-31T04:06:21.556856,0,0.15673828125,0.955078125,0.33984375,0.8244274809160306,-0.5877862595419847,-0.05343511450381679,23.353529411764708
2024-10-31T04:06:21.572743,0,0.161865234375,0.962158203125,0.33447265625,0.9083969465648855,-0.3282442748091603,-0.06870229007633588,23.306470588235296
2024-10-31T04:06:21.588629,0,0.18408203125,0.96337890625,0.33740234375,0.8320610687022901,0.04580152671755725,-0.2748091603053435,23.25941176470588
2024-10-31T04:06:21.604513,0,0.16064453125,0.959716796875,0.3310546875,0.8778625954198473,-1.9312977099236641,-0.26717557251908397,23.40058823529412
2024-10-31T04:06:21.620405,0,0.166748046875,0.96533203125,0.34521484375,0.7557251908396947,-0.19083969465648856,-0.19083969465648856,23.306470588235296
2024-10-31T04:06:21.636292,0,0.166748046875,0.969482421875,0.33935546875,0.732824427480916,-0.2595419847328244,-0.03816793893129771,23.306470588235296
2024-10-31T04:06:21.652178,0,0.16845703125,0.962890625,0.349365234375,0.9007633587786259,-0.6641221374045801,-0.2595419847328244,23.25941176470588
2024-10-31T04:06:21.668063,0,0.16455078125,0.956787109375,0.330322265625,1.0076335877862594,-1.083969465648855,-1.9541984732824427,23.306470588235296
2024-10-31T04:06:21.683948,0,0.159912109375,0.963134765625,0.329833984375,0.916030534351145,-0.9465648854961832,-1.916030534351145,23.306470588235296
2024-10-31T04:06:21.699834,0,0.161376953125,0.959228515625,0.332275390625,0.9465648854961832,-0.8702290076335878,-0.0916030534351145,23.25941176470588
2024-10-31T04:06:21.715720,0,0.161376953125,0.95654296875,0.332763671875,0.9083969465648855,-0.816793893129771,-0.12213740458015267,23.25941176470588
2024-10-31T04:06:21.731607,0,0.1591796875,0.954345703125,0.353759765625,1.0229007633587786,-0.6946564885496184,-0.16030534351145037,23.306470588235296
2024-10-31T04:06:21.747492,0,0.1591796875,0.953857421875,0.3505859375,0.9083969465648855,-0.24427480916030533,-0.07633587786259542,23.353529411764708
2024-10-31T04:06:21.763377,0,0.157958984375,0.9609375,0.3466796875,0.9083969465648855,-0.1450381679389313,-0.3282442748091603,23.25941176470588
2024-10-31T04:06:21.779260,0,0.1572265625,0.96435546875,0.33642578125,0.7480916030534351,-1.8244274809160306,-0.35877862595419846,23.306470588235296
2024-10-31T04:06:21.795146,0,0.167236328125,0.95751953125,0.34375,0.8320610687022901,-0.1450381679389313,-0.32061068702290074,23.353529411764708
2024-10-31T04:06:21.811031,0,0.16845703125,0.960693359375,0.344482421875,0.8778625954198473,-0.3511450381679389,-0.04580152671755725,23.25941176470588
2024-10-31T04:06:21.826917,0,0.164306640625,0.958740234375,0.340087890625,0.7938931297709924,-0.6335877862595419,-0.007633587786259542,23.306470588235296
2024-10-31T04:06:21.842802,0,0.155029296875,0.95703125,0.34765625,0.916030534351145,-0.9236641221374046,-0.2748091603053435,23.306470588235296
2024-10-31T04:06:21.858688,0,0.15478515625,0.959716796875,0.345703125,0.9541984732824428,-0.9770992366412213,-0.05343511450381679,23.25941176470588
2024-10-31T04:06:21.874574,0,0.164306640625,0.95361328125,0.334228515625,0.8854961832061069,-0.8549618320610687,-0.2900763358778626,23.306470588235296
2024-10-31T04:06:21.890460,0,0.162841796875,0.9541015625,0.34033203125,0.9770992366412213,-0.549618320610687,0.06870229007633588,23.306470588235296
2024-10-31T04:06:21.906345,0,0.162109375,0.95703125,0.336669921875,1.0687022900763359,-0.366412213740458,-0.08396946564885496,23.25941176470588
2024-10-31T04:06:21.922232,0,0.161865234375,0.964111328125,0.33935546875,0.8854961832061069,-0.17557251908396945,-0.06870229007633588,23.353529411764708
2024-10-31T04:06:21.938118,0,0.169921875,0.978271484375,0.341796875,0.9236641221374046,-0.09923664122137404,-0.5114503816793893,23.306470588235296
2024-10-31T04:06:21.954005,0,0.169921875,0.96484375,0.34326171875,0.8778625954198473,-0.0916030534351145,-0.3969465648854962,23.306470588235296
2024-10-31T04:06:21.969890,0,0.167236328125,0.967041015625,0.333984375,0.9694656488549618,-0.2595419847328244,-0.3282442748091603,23.25941176470588
2024-10-31T04:06:21.985776,0,0.165283203125,0.961669921875,0.34716796875,0.9007633587786259,-0.5190839694656488,-0.0916030534351145,23.306470588235296
2024-10-31T04:06:22.001667,0,0.168212890625,0.959716796875,0.345458984375,0.9465648854961832,-0.8320610687022901,-0.04580152671755725,23.306470588235296
2024-10-31T04:06:22.017555,0,0.164794921875,0.95947265625,0.344482421875,0.9312977099236641,-0.9770992366412213,-0.22137404580152673,23.353529411764708
2024-10-31T04:06:22.033442,0,0.165771484375,0.960205078125,0.3447265625,1.0229007633587786,-1.0610687022900764,1.900763358778626,23.306470588235296
2024-10-31T04:06:22.049329,0,0.165771484375,0.9501953125,0.342529296875,1.015267175572519,-1.0305343511450382,-0.31297709923664124,23.306470588235296
2024-10-31T04:06:22.065214,0,0.159423828125,0.95556640625,0.33251953125,1.015267175572519,-0.4961832061068702,0.20610687022900764,23.353529411764708
2024-10-31T04:06:22.081110,0,0.167236328125,0.961181640625,0.3447265625,0.9236641221374046,-0.10687022900763359,-0.15267175572519084,23.353529411764708
2024-10-31T04:06:22.097006,0,0.16455078125,0.95849609375,0.339111328125,0.8931297709923665,-0.22900763358778625,-0.2900763358778626,23.306470588235296
2024-10-31T04:06:22.112894,0,0.158447265625,0.954345703125,0.335205078125,0.8854961832061069,-1.9389312977099236,-0.22137404580152673,23.306470588235296
2024-10-31T04:06:22.128781,0,0.164306640625,0.961181640625,0.337646484375,0.9312977099236641,-0.022900763358778626,-0.3816793893129771,23.353529411764708
2024-10-31T04:06:22.144663,0,0.16455078125,0.959228515625,0.3544921875,0.8320610687022901,-0.2366412213740458,-0.05343511450381679,23.25941176470588
2024-10-31T04:06:22.160549,0,0.1708984375,0.966552734375,0.3291015625,0.9389312977099237,-0.5725190839694656,-0.29770992366412213,23.306470588235296
2024-10-31T04:06:22.176436,0,0.166748046875,0.9638671875,0.330810546875,0.9541984732824428,-0.8549618320610687,-0.1297709923664122,23.353529411764708
2024-10-31T04:06:22.192322,0,0.160400390625,0.965087890625,0.344482421875,1.0076335877862594,-1.183206106870229,-0.3053435114503817,23.353529411764708
2024-10-31T04:06:22.208209,0,0.17138671875,0.967041015625,0.341064453125,0.9236641221374046,-1.0534351145038168,-0.12213740458015267,23.306470588235296
2024-10-31T04:06:22.224095,0,0.16748046875,0.9580078125,0.34326171875,0.8244274809160306,-0.9770992366412213,-0.29770992366412213,23.306470588235296
2024-10-31T04:06:22.239981,0,0.16552734375,0.9609375,0.34033203125,0.8473282442748091,-0.5038167938931297,-0.3282442748091603,23.353529411764708
2024-10-31T04:06:22.255865,0,0.15625,0.958251953125,0.343505859375,0.8244274809160306,-0.366412213740458,-0.12213740458015267,23.306470588235296
2024-10-31T04:06:22.271751,0,0.168701171875,0.9599609375,0.334228515625,0.816793893129771,-0.3053435114503817,-0.26717557251908397,23.306470588235296
2024-10-31T04:06:22.287639,0,0.1708984375,0.9677734375,0.345458984375,0.8854961832061069,-0.007633587786259542,-0.09923664122137404,23.353529411764708
2024-10-31T04:06:22.303525,0,0.161376953125,0.963134765625,0.33935546875,0.7786259541984732,-0.15267175572519084,-0.3511450381679389,23.25941176470588
2024-10-31T04:06:22.319412,0,0.165771484375,0.967041015625,0.343017578125,0.7938931297709924,-0.4580152671755725,-0.05343511450381679,23.306470588235296
2024-10-31T04:06:22.335298,0,0.165283203125,0.96533203125,0.359130859375,0.9236641221374046,-0.8854961832061069,-0.3435114503816794,23.25941176470588
2024-10-31T04:06:22.351185,0,0.158935546875,0.9619140625,0.341064453125,0.9618320610687023,-0.7862595419847328,-0.20610687022900764,23.25941176470588
2024-10-31T04:06:22.367070,0,0.16015625,0.963623046875,0.337646484375,0.8854961832061069,-0.9847328244274809,-0.16030534351145037,23.306470588235296
2024-10-31T04:06:22.382954,0,0.164794921875,0.9580078125,0.341552734375,0.9923664122137404,-1.0076335877862594,-0.24427480916030533,23.21235294117647
2024-10-31T04:06:22.398840,0,0.164306640625,0.95947265625,0.347900390625,0.9465648854961832,-0.8320610687022901,-0.31297709923664124,23.353529411764708
2024-10-31T04:06:22.414727,0,0.1630859375,0.959228515625,0.332275390625,0.9923664122137404,-0.5572519083969466,-0.366412213740458,23.21235294117647
2024-10-31T04:06:22.430611,0,0.161865234375,0.961669921875,0.3427734375,0.9541984732824428,-0.20610687022900764,0.05343511450381679,23.21235294117647
2024-10-31T04:06:22.446501,0,0.163330078125,0.956787109375,0.333251953125,0.732824427480916,-0.20610687022900764,-0.5648854961832062,23.25941176470588
2024-10-31T04:06:22.462388,0,0.170654296875,0.961181640625,0.33203125,0.8244274809160306,-0.015267175572519083,-0.2366412213740458,23.306470588235296
2024-10-31T04:06:22.478285,0,0.166015625,0.9609375,0.35400390625,0.7404580152671756,-0.22900763358778625,-0.4122137404580153,23.306470588235296
2024-10-31T04:06:22.494172,0,0.1611328125,0.96044921875,0.34423828125,0.8854961832061069,-0.3511450381679389,-0.2366412213740458,23.306470588235296
2024-10-31T04:06:22.510058,0,0.16015625,0.965087890625,0.338134765625,0.8396946564885496,-0.7633587786259542,-0.366412213740458,23.25941176470588
2024-10-31T04:06:22.525943,0,0.163818359375,0.96044921875,0.339111328125,1.0229007633587786,-0.9770992366412213,-0.1984732824427481,23.306470588235296
2024-10-31T04:06:22.541829,0,0.161865234375,0.956787109375,0.338623046875,1.0458015267175573,-1.015267175572519,-0.2595419847328244,23.306470588235296
2024-10-31T04:06:22.557713,0,0.160888671875,0.954833984375,0.341552734375,0.9618320610687023,-0.8396946564885496,-0.2824427480916031,23.353529411764708
2024-10-31T04:06:22.573600,0,0.162353515625,0.960205078125,0.34228515625,0.8854961832061069,-0.5877862595419847,-0.13740458015267176,23.25941176470588
2024-10-31T04:06:22.589485,0,0.170654296875,0.965087890625,0.31689453125,0.9541984732824428,-0.42748091603053434,-0.17557251908396945,23.306470588235296
2024-10-31T04:06:22.605368,0,0.163818359375,0.9541015625,0.3408203125,0.8854961832061069,0.05343511450381679,1.8854961832061068,23.353529411764708
2024-10-31T04:06:22.621256,0,0.169921875,0.959716796875,0.343994140625,0.7022900763358778,-0.3435114503816794,-0.25190839694656486,23.353529411764708
2024-10-31T04:06:22.637142,0,0.16162109375,0.9580078125,0.34814453125,0.7099236641221374,-1.916030534351145,-0.09923664122137404,23.306470588235296
2024-10-31T04:06:22.653027,0,0.16845703125,0.95703125,0.338134765625,0.6946564885496184,-0.2900763358778626,-0.25190839694656486,23.306470588235296
2024-10-31T04:06:22.668910,0,0.171630859375,0.9619140625,0.3369140625,0.9007633587786259,-0.5343511450381679,-0.15267175572519084,23.25941176470588
2024-10-31T04:06:22.684796,0,0.166015625,0.95654296875,0.34619140625,0.8244274809160306,-0.7709923664122137,-0.21374045801526717,23.40058823529412
2024-10-31T04:06:22.700682,0,0.164306640625,0.957275390625,0.343017578125,0.8854961832061069,-1.213740458015267,-0.22900763358778625,23.306470588235296
2024-10-31T04:06:22.716565,0,0.16064453125,0.956298828125,0.341552734375,0.9618320610687023,-0.8244274809160306,-0.030534351145038167,23.353529411764708
2024-10-31T04:06:22.732452,0,0.1591796875,0.955810546875,0.3310546875,0.9770992366412213,-0.9236641221374046,-0.183206106870229,23.353529411764708
2024-10-31T04:06:22.748337,0,0.16259765625,0.956787109375,0.33740234375,0.9389312977099237,-0.549618320610687,-0.22900763358778625,23.40058823529412
2024-10-31T04:06:22.764222,0,0.1669921875,0.97412109375,0.3427734375,0.7786259541984732,-0.3511450381679389,-0.46564885496183206,23.25941176470588
2024-10-31T04:06:22.780108,0,0.16943359375,0.958251953125,0.346923828125,0.8549618320610687,-0.16793893129770993,-0.22137404580152673,23.25941176470588
2024-10-31T04:06:22.795995,0,0.161376953125,0.96484375,0.332275390625,0.8702290076335878,-0.04580152671755725,-0.10687022900763359,23.21235294117647
2024-10-31T04:06:22.811881,0,0.16796875,0.9638671875,0.330810546875,0.8015267175572519,-0.061068702290076333,-0.04580152671755725,23.21235294117647
2024-10-31T04:06:22.827766,0,0.160888671875,0.95947265625,0.33837890625,0.7862595419847328,-0.2900763358778626,-0.2595419847328244,23.25941176470588
2024-10-31T04:06:22.843650,0,0.16845703125,0.966064453125,0.33837890625,0.816793893129771,-0.7175572519083969,-0.2900763358778626,23.306470588235296
2024-10-31T04:06:22.859536,0,0.1640625,0.967529296875,0.3505859375,0.916030534351145,-1.0687022900763359,-0.2595419847328244,23.40058823529412
2024-10-31T04:06:22.875423,0,0.171630859375,0.953369140625,0.334228515625,0.8244274809160306,-1.0610687022900764,-0.42748091603053434,23.353529411764708
2024-10-31T04:06:22.891307,0,0.1591796875,0.953857421875,0.338134765625,1.0381679389312977,-0.8931297709923665,-0.16030534351145037,23.306470588235296
2024-10-31T04:06:22.907193,0,0.166015625,0.952392578125,0.337890625,1.1145038167938932,-0.9770992366412213,-0.37404580152671757,23.40058823529412
2024-10-31T04:06:22.923079,0,0.1640625,0.953369140625,0.34326171875,0.9770992366412213,-0.3969465648854962,-0.09923664122137404,23.353529411764708
2024-10-31T04:06:22.938965,0,0.1640625,0.95703125,0.353515625,0.8625954198473282,-0.17557251908396945,-0.3511450381679389,23.25941176470588
2024-10-31T04:06:22.954848,0,0.170166015625,0.95703125,0.335205078125,0.9007633587786259,0.03816793893129771,-0.46564885496183206,23.21235294117647
2024-10-31T04:06:22.970733,0,0.1689453125,0.9609375,0.336181640625,0.7404580152671756,-0.015267175572519083,-0.06870229007633588,23.306470588235296
2024-10-31T04:06:22.986619,0,0.166748046875,0.962158203125,0.341552734375,0.9465648854961832,-0.3435114503816794,-0.15267175572519084,23.353529411764708
2024-10-31T04:06:23.002505,0,0.166259765625,0.964111328125,0.332763671875,0.8625954198473282,-0.4122137404580153,-0.20610687022900764,23.306470588235296
2024-10-31T04:06:23.018391,0,0.1640625,0.96044921875,0.329833984375,0.916030534351145,-0.7938931297709924,-0.15267175572519084,23.21235294117647
2024-10-31T04:06:23.034277,0,0.16162109375,0.962158203125,0.342529296875,0.8396946564885496,-0.9465648854961832,0.061068702290076333,23.353529411764708
2024-10-31T04:06:23.050163,0,0.16455078125,0.961181640625,0.339111328125,1.0381679389312977,-1.2595419847328244,-0.3053435114503817,23.353529411764708
2024-10-31T04:06:23.066046,0,0.16943359375,0.9560546875,0.33447265625,1.0687022900763359,-1.0763358778625953,-0.015267175572519083,23.306470588235296
2024-10-31T04:06:23.081942,0,0.159912109375,0.952880859375,0.343505859375,0.9389312977099237,-0.8015267175572519,-0.3893129770992366,23.353529411764708
2024-10-31T04:06:23.097838,0,0.169921875,0.96435546875,0.338134765625,0.9083969465648855,-0.7175572519083969,-0.16793893129770993,23.353529411764708
2024-10-31T04:06:23.113726,0,0.16748046875,0.9609375,0.336181640625,0.816793893129771,-0.24427480916030533,-0.16030534351145037,23.306470588235296
2024-10-31T04:06:23.129664,0,0.174072265625,0.958984375,0.33203125,0.8625954198473282,0.007633587786259542,-0.3053435114503817,23.306470588235296
2024-10-31T04:06:23.145614,0,0.164794921875,0.96630859375,0.3408203125,0.6717557251908397,-0.007633587786259542,-0.0916030534351145,23.40058823529412
2024-10-31T04:06:23.161567,0,0.1728515625,0.96142578125,0.340087890625,0.7938931297709924,-0.25190839694656486,-0.1984732824427481,23.306470588235296
2024-10-31T04:06:23.177662,1,0.16357421875,0.963134765625,0.327392578125,0.11450381679389313,-0.48854961832061067,-0.7633587786259542,23.25941176470588
2024-10-31T04:06:23.193636,1,0.1240234375,0.983154296875,0.36474609375,-3.83206106870229,-9.038167938931299,-3.648854961832061,23.353529411764708
2024-10-31T04:06:23.209611,1,0.48095703125,1.001953125,0.203857421875,3.7786259541984735,28.259541984732824,9.404580152671755,23.353529411764708
2024-10-31T04:06:23.225571,1,0.709716796875,0.63671875,-0.40576171875,10.145038167938932,-12.740458015267176,-30.0,23.353529411764708
2024-10-31T04:06:23.241518,1,0.920166015625,0.841064453125,0.1416015625,0.3435114503816794,-5.465648854961832,-34.19083969465649,23.25941176470588
2024-10-31T04:06:23.257464,1,0.324951171875,1.081787109375,-0.28173828125,-3.0381679389312977,8.511450381679388,40.10687022900763,23.25941176470588
2024-10-31T04:06:23.273408,1,-1.869873046875,0.73583984375,1.917236328125,-44.3206106870229,24.48854961832061,45.79389312977099,23.25941176470588
2024-10-31T04:06:23.289351,1,-2.0,0.684326171875,1.812255859375,-33.900763358778626,83.7557251908397,67.93893129770993,23.353529411764708
2024-10-31T04:06:23.305295,1,-0.1611328125,0.81640625,-0.11865234375,17.358778625954198,168.85496183206106,25.267175572519083,23.40058823529412
2024-10-31T04:06:23.321246,1,1.99993896484375,0.009765625,-1.892578125,88.06870229007633,130.2290076335878,-116.44274809160305,23.40058823529412
2024-10-31T04:06:23.337214,1,-1.783203125,1.99993896484375,1.99993896484375,-132.38931297709922,-143.83969465648855,91.12213740458016,23.306470588235296
2024-10-31T04:06:23.353185,1,1.99993896484375,1.4794921875,-2.0,64.46564885496183,83.03053435114504,-34.99236641221374,23.306470588235296
2024-10-31T04:06:23.369170,1,-2.0,1.21533203125,1.99993896484375,-13.404580152671755,-12.572519083969466,47.12213740458015,23.353529411764708
2024-10-31T04:06:23.385142,1,1.855712890625,0.12890625,-1.360595703125,28.0381679389313,189.3969465648855,-64.02290076335878,23.353529411764708
2024-10-31T04:06:23.401057,1,-2.0,1.710205078125,1.99993896484375,-101.25190839694656,-196.72519083969465,150.206106870229,23.306470588235296
2024-10-31T04:06:23.417009,1,1.99993896484375,-0.34521484375,-2.0,107.1145038167939,117.48091603053435,-34.80152671755725,23.306470588235296
2024-10-31T04:06:23.432958,1,-2.0,1.482177734375,1.99993896484375,-164.86259541984734,-96.77099236641222,-14.450381679389313,23.40058823529412
2024-10-31T04:06:23.448911,1,1.99993896484375,0.56201171875,-2.0,140.96946564885496,63.47328244274809,-101.45801526717557,23.21235294117647
2024-10-31T04:06:23.464936,1,-1.656005859375,1.99993896484375,1.99993896484375,-181.44274809160305,17.435114503816795,68.12213740458016,23.25941176470588
2024-10-31T04:06:23.480899,1,1.99993896484375,0.731201171875,-1.633056640625,143.83969465648855,140.01526717557252,-187.1679389312977,23.25941176470588
2024-10-31T04:06:23.496857,1,-1.49365234375,0.80615234375,1.56201171875,-67.92366412213741,-46.74809160305343,34.458015267175576,23.25941176470588
2024-10-31T04:06:23.512803,1,-0.48046875,1.893798828125,0.58740234375,27.68702290076336,109.87786259541984,87.68702290076335,23.25941176470588
2024-10-31T04:06:23.528756,1,1.99993896484375,0.1083984375,-1.681640625,85.06870229007633,35.412213740458014,-110.90076335877863,23.353529411764708
2024-10-31T04:06:23.544702,1,-2.0,1.625732421875,1.99993896484375,-191.45801526717557,-68.21374045801527,43.44274809160305,23.353529411764708
2024-10-31T04:06:23.560645,1,1.815185546875,0.61767578125,-1.05078125,73.76335877862596,158.4885496183206,-63.97709923664122,23.306470588235296
2024-10-31T04:06:23.576641,1,1.0810546875,0.021240234375,-0.3857421875,57.64885496183206,-23.106870229007633,-43.30534351145038,23.25941176470588
2024-10-31T04:06:23.592618,1,-2.0,1.99993896484375,1.99993896484375,-155.0229007633588,-100.9618320610687,114.42748091603053,23.25941176470588
2024-10-31T04:06:23.608579,1,1.99993896484375,0.469482421875,-1.896728515625,115.53435114503817,97.23664122137404,-42.10687022900763,23.25941176470588
2024-10-31T04:06:23.624528,1,1.7802734375,0.18359375,-1.134521484375,64.40458015267176,16.480916030534353,-97.54961832061069,23.25941176470588
2024-10-31T04:06:23.640470,1,-2.0,1.99993896484375,1.99993896484375,-126.02290076335878,-167.67175572519085,64.83969465648855,23.353529411764708
2024-10-31T04:06:23.656410,1,-0.28076171875,1.508544921875,0.501953125,-6.809160305343512,74.16030534351145,13.633587786259541,23.306470588235296
2024-10-31T04:06:23.672354,1,1.99993896484375,-0.494384765625,-1.826904296875,121.06870229007633,117.80916030534351,-42.595419847328245,23.306470588235296
2024-10-31T04:06:23.688309,1,0.279052734375,0.60498046875,0.60693359375,1.4961832061068703,-115.8854961832061,7.549618320610687,23.306470588235296
2024-10-31T04:06:23.704257,1,-2.0,1.99993896484375,1.99993896484375,-130.13740458015266,-69.03053435114504,105.13740458015268,23.21235294117647
2024-10-31T04:06:23.720202,1,0.52978515625,0.959716796875,-0.02490234375,51.7557251908397,133.5267175572519,52.68702290076336,23.306470588235296
2024-10-31T04:06:23.736165,1,1.99993896484375,0.102294921875,-2.0,112.21374045801527,104.4885496183206,-129.91603053435114,23.306470588235296
2024-10-31T04:06:23.752116,1,-0.712646484375,0.671875,0.947021484375,-4.022900763358779,-97.29007633587786,-27.282442748091604,23.306470588235296
2024-10-31T04:06:23.768063,1,-2.0,1.9599609375,1.99993896484375,-146.33587786259542,-136.13740458015266,55.47328244274809,23.306470588235296
2024-10-31T04:06:23.784015,1,-0.673095703125,1.42578125,0.6796875,-4.679389312977099,40.25954198473283,62.458015267175576,23.306470588235296
2024-10-31T04:06:23.799962,1,1.99993896484375,0.393798828125,-2.0,87.0381679389313,104.50381679389314,-24.396946564885496,23.21235294117647
2024-10-31T04:06:23.815907,1,1.99993896484375,-0.033203125,-1.89111328125,88.3587786259542,20.328244274809162,-90.29770992366412,23.306470588235296
2024-10-31T04:06:23.831865,1,0.10693359375,0.640869140625,0.281494140625,-0.16793893129770993,-123.65648854961832,-38.20610687022901,23.306470588235296
2024-10-31T04:06:23.847821,1,-2.0,1.5361328125,1.99993896484375,-103.38167938931298,-99.73282442748092,9.427480916030534,23.40058823529412
2024-10-31T04:06:23.863764,1,-2.0,1.99993896484375,1.99993896484375,-118.6030534351145,-22.18320610687023,78.70229007633588,23.306470588235296
2024-10-31T04:06:23.879708,1,-0.589599609375,1.450439453125,1.197998046875,12.106870229007633,117.33587786259542,85.93129770992367,23.306470588235296
2024-10-31T04:06:23.895654,1,1.436279296875,0.488525390625,-0.560791015625,87.86259541984732,162.9083969465649,0.5190839694656488,23.21235294117647
2024-10-31T04:06:23.911600,1,1.99993896484375,0.2509765625,-2.0,111.03053435114504,128.9083969465649,-94.61068702290076,23.306470588235296
2024-10-31T04:06:23.927539,1,1.945556640625,0.4306640625,-1.406005859375,73.5114503816794,-4.755725190839694,-116.52671755725191,23.306470588235296
2024-10-31T04:06:23.943484,1,-0.466796875,0.845703125,0.615234375,3.2061068702290076,-109.57251908396947,-32.67175572519084,23.25941176470588
2024-10-31T04:06:23.959429,1,-1.9736328125,1.592041015625,1.99993896484375,-91.12213740458016,-124.45801526717557,38.80152671755725,23.25941176470588
2024-10-31T04:06:23.975380,1,-2.0,1.9033203125,1.99993896484375,-107.55725190839695,-114.35114503816794,70.61832061068702,23.25941176470588
2024-10-31T04:06:23.991320,1,-1.505126953125,1.605712890625,1.76806640625,-90.7557251908397,7.33587786259542,94.59541984732824,23.25941176470588
2024-10-31T04:06:24.007264,1,0.395263671875,0.437744140625,1.69287109375,17.435114503816795,80.14503816793894,52.36641221374046,23.25941176470588
2024-10-31T04:06:24.023205,1,1.99993896484375,-0.024169921875,0.012451171875,59.51908396946565,114.90839694656489,-41.12213740458015,23.353529411764708
2024-10-31T04:06:24.039150,1,1.99993896484375,0.0419921875,-1.153564453125,98.62595419847328,94.16030534351145,-69.29770992366412,23.44764705882353
2024-10-31T04:06:24.055096,1,1.823486328125,0.767333984375,-1.73046875,49.81679389312977,10.65648854961832,-127.74809160305344,23.25941176470588
2024-10-31T04:06:24.071052,1,0.2177734375,0.9521484375,-1.739501953125,30.84732824427481,-62.221374045801525,-83.50381679389314,23.353529411764708
2024-10-31T04:06:24.087009,1,-1.26025390625,1.204345703125,-0.697998046875,-26.786259541984734,-126.48091603053435,-47.87022900763359,23.353529411764708
2024-10-31T04:06:24.102960,1,-2.0,1.66748046875,0.79681396484375,-93.4885496183206,-136.18320610687022,10.290076335877863,23.40058823529412
2024-10-31T04:06:24.118904,1,-2.0,1.8466796875,1.95306396484375,-99.59541984732824,-117.93893129770993,74.83206106870229,23.40058823529412
2024-10-31T04:06:24.134848,1,-1.8349609375,1.596435546875,1.99993896484375,-93.50381679389314,-45.67175572519084,99.86259541984732,23.306470588235296
2024-10-31T04:06:24.150794,1,-0.73583984375,1.292236328125,1.99560546875,-20.61832061068702,27.900763358778626,95.74045801526718,23.40058823529412
2024-10-31T04:06:24.166736,1,0.649169921875,0.874267578125,1.753662109375,24.50381679389313,108.77099236641222,68.22137404580153,23.21235294117647
2024-10-31T04:06:24.182680,1,1.8447265625,0.56982421875,0.73486328125,63.11450381679389,128.5114503816794,6.633587786259542,23.21235294117647
2024-10-31T04:06:24.198623,1,1.99993896484375,0.56982421875,-0.396484375,86.53435114503817,124.99236641221374,-54.030534351145036,23.306470588235296
2024-10-31T04:06:24.214592,1,1.99993896484375,0.512939453125,-1.40185546875,91.53435114503817,74.34351145038168,-97.70229007633588,23.21235294117647
2024-10-31T04:06:24.230544,1,1.950927734375,0.275390625,-1.861572265625,75.19083969465649,16.763358778625953,-101.17557251908397,23.306470588235296
2024-10-31T04:06:24.246490,1,0.877197265625,0.40478515625,-1.883056640625,50.229007633587784,-41.88549618320611,-94.23664122137404,23.306470588235296
2024-10-31T04:06:24.262434,1,-0.355712890625,0.374267578125,-1.330322265625,8.427480916030534,-83.37404580152672,-63.93893129770992,23.25941176470588
2024-10-31T04:06:24.278378,1,-1.429931640625,0.58544921875,-0.35302734375,-38.66412213740458,-113.69465648854961,-36.88549618320611,23.25941176470588
2024-10-31T04:06:24.294319,1,-2.0,0.995361328125,0.84368896484375,-81.74809160305344,-132.9083969465649,12.450381679389313,23.353529411764708
2024-10-31T04:06:24.310262,1,-2.0,1.512451171875,1.87493896484375,-100.97709923664122,-121.07633587786259,55.86259541984733,23.25941176470588
2024-10-31T04:06:24.326223,1,-2.0,1.69482421875,1.99993896484375,-91.0381679389313,-76.34351145038168,81.12977099236642,23.353529411764708
2024-10-31T04:06:24.342178,1,-1.35205078125,1.578369140625,1.999267578125,-67.45801526717557,-15.435114503816793,101.08396946564885,23.25941176470588
2024-10-31T04:06:24.358127,1,-0.33740234375,1.32763671875,1.988525390625,-24.564885496183205,52.48091603053435,90.74809160305344,23.25941176470588
2024-10-31T04:06:24.374083,1,0.840576171875,1.16162109375,1.671630859375,17.27480916030534,102.69465648854961,66.01526717557252,23.25941176470588
2024-10-31T04:06:24.390037,1,1.957763671875,0.825927734375,0.743408203125,52.343511450381676,128.8854961832061,22.404580152671755,23.25941176470588
2024-10-31T04:06:24.405985,1,1.99993896484375,0.46435546875,-0.314697265625,78.91603053435115,126.47328244274809,-35.06106870229008,23.25941176470588
2024-10-31T04:06:24.421930,1,1.99993896484375,0.218994140625,-1.18212890625,93.52671755725191,96.94656488549619,-81.58015267175573,23.25941176470588
2024-10-31T04:06:24.437874,1,1.99993896484375,0.090087890625,-1.723876953125,82.44274809160305,41.06870229007634,-101.77862595419847,23.306470588235296
2024-10-31T04:06:24.453833,1,1.988037109375,0.2470703125,-1.953125,64.58778625954199,-15.564885496183207,-108.06106870229007,23.306470588235296
2024-10-31T04:06:24.469790,1,1.984619140625,0.384765625,-1.658935546875,37.2442748091603,-60.152671755725194,-86.27480916030534,23.306470588235296
2024-10-31T04:06:24.485739,1,1.207275390625,0.48291015625,-0.97802734375,1.0,-85.38167938931298,-63.61068702290076,23.40058823529412
2024-10-31T04:06:24.501696,1,0.14111328125,0.73193359375,0.02880859375,-44.778625954198475,-113.97709923664122,-30.9618320610687,23.40058823529412
2024-10-31T04:06:24.517641,1,-0.921875,1.0791015625,1.06243896484375,-84.6030534351145,-129.91603053435114,7.236641221374046,23.40058823529412
2024-10-31T04:06:24.533586,1,-1.796875,1.4560546875,1.87493896484375,-96.83206106870229,-120.61068702290076,46.58015267175573,23.306470588235296
2024-10-31T04:06:24.549536,1,-2.0,1.809814453125,1.99993896484375,-93.92366412213741,-89.77862595419847,73.44274809160305,23.306470588235296
2024-10-31T04:06:24.565482,1,-1.984619140625,1.7216796875,1.985595703125,-79.16793893129771,-37.80152671755725,91.93893129770993,23.306470588235296
2024-10-31T04:06:24.581426,1,-1.9990234375,1.485595703125,1.99993896484375,-48.44274809160305,20.053435114503817,96.06870229007633,23.306470588235296
2024-10-31T04:06:24.597371,1,-1.510009765625,1.297607421875,1.905517578125,-6.3816793893129775,72.8473282442748,87.43511450381679,23.353529411764708
2024-10-31T04:06:24.613314,1,-0.65625,1.110107421875,1.18408203125,28.083969465648856,109.93129770992367,67.61832061068702,23.25941176470588
2024-10-31T04:06:24.629263,1,0.39056396484375,0.893310546875,0.309814453125,59.19847328244275,126.2824427480916,29.198473282442748,23.25941176470588
2024-10-31T04:06:24.645206,1,1.35931396484375,0.669677734375,-0.52392578125,78.7557251908397,125.30534351145039,-17.267175572519083,23.353529411764708
2024-10-31T04:06:24.661158,1,1.99993896484375,0.4697265625,-1.18798828125,89.74045801526718,109.25954198473282,-61.12977099236641,23.353529411764708
2024-10-31T04:06:24.677104,1,1.99993896484375,0.33447265625,-1.6904296875,88.36641221374046,75.12213740458016,-84.38931297709924,23.25941176470588
2024-10-31T04:06:24.693048,1,1.989990234375,0.364501953125,-1.93115234375,78.29007633587786,26.83969465648855,-103.93129770992367,23.25941176470588
2024-10-31T04:06:24.708991,1,1.9990234375,0.492431640625,-1.816162109375,59.94656488549618,-22.450381679389313,-104.63358778625954,23.25941176470588
2024-10-31T04:06:24.724940,1,1.635498046875,0.630126953125,-1.29296875,34.37404580152672,-62.00763358778626,-83.18320610687023,23.353529411764708
2024-10-31T04:06:24.740889,1,0.696044921875,0.8291015625,-0.48193359375,-0.8549618320610687,-89.34351145038168,-61.465648854961835,23.306470588235296
2024-10-31T04:06:24.756836,1,-0.3125,1.023681640625,0.478759765625,-42.725190839694655,-113.25190839694656,-30.83969465648855,23.40058823529412
2024-10-31T04:06:24.772786,1,-1.25,1.3125,1.3818359375,-81.18320610687023,-123.09923664122137,6.251908396946565,23.40058823529412
2024-10-31T04:06:24.788736,1,-2.0,1.671875,1.99993896484375,-97.6030534351145,-119.04580152671755,38.41984732824427,23.306470588235296
2024-10-31T04:06:24.804675,1,-2.0,1.891845703125,1.99993896484375,-98.42748091603053,-93.80916030534351,65.23664122137404,23.306470588235296
2024-10-31T04:06:24.820624,1,-1.995849609375,1.7744140625,1.99993896484375,-89.93893129770993,-57.57251908396947,86.72519083969466,23.40058823529412
2024-10-31T04:06:24.836583,1,-1.985595703125,1.659912109375,1.99993896484375,-70.82442748091603,-12.80916030534351,98.21374045801527,23.306470588235296
2024-10-31T04:06:24.852541,1,-1.65234375,1.4892578125,1.99993896484375,-42.61068702290076,36.6793893129771,99.30534351145039,23.306470588235296
2024-10-31T04:06:24.868489,1,-0.95654296875,1.37646484375,1.48193359375,-7.786259541984733,81.8473282442748,86.09160305343511,23.306470588235296
2024-10-31T04:06:24.884440,1,-0.044921875,1.064453125,0.692138671875,29.297709923664122,106.61832061068702,66.0381679389313,23.40058823529412
2024-10-31T04:06:24.900394,1,1.03118896484375,0.741455078125,-0.168701171875,57.48854961832061,130.61832061068702,25.549618320610687,23.306470588235296
2024-10-31T04:06:24.916346,1,1.98431396484375,0.386962890625,-0.939697265625,79.07633587786259,127.59541984732824,-20.908396946564885,23.353529411764708
2024-10-31T04:06:24.932299,1,1.99993896484375,0.21533203125,-1.558837890625,86.91603053435115,109.31297709923665,-64.77099236641222,23.353529411764708
2024-10-31T04:06:24.948240,1,1.98876953125,0.17578125,-1.884521484375,82.98473282442748,63.30534351145038,-95.03053435114504,23.25941176470588
2024-10-31T04:06:24.964186,1,1.99993896484375,0.31640625,-1.820068359375,64.76335877862596,12.427480916030534,-100.67175572519083,23.25941176470588
2024-10-31T04:06:24.980137,1,1.6669921875,0.447265625,-1.293701171875,42.25190839694657,-34.97709923664122,-85.93893129770993,23.353529411764708
2024-10-31T04:06:24.996081,1,0.635986328125,0.609130859375,-0.387451171875,13.717557251908397,-74.09160305343511,-62.67175572519084,23.353529411764708
2024-10-31T04:06:25.012033,1,-0.436279296875,0.872314453125,0.638916015625,-27.34351145038168,-105.25190839694656,-31.68702290076336,23.353529411764708
2024-10-31T04:06:25.027978,1,-1.381103515625,1.172607421875,1.485595703125,-69.33587786259542,-121.2442748091603,4.068702290076335,23.306470588235296
2024-10-31T04:06:25.043923,1,-2.0,1.52197265625,1.99993896484375,-98.74045801526718,-121.49618320610686,37.969465648854964,23.306470588235296
2024-10-31T04:06:25.059872,1,-2.0,1.705322265625,1.99993896484375,-100.0,-100.3587786259542,61.16030534351145,23.21235294117647
2024-10-31T04:06:25.075837,1,-2.0,1.502685546875,1.99993896484375,-89.32824427480917,-59.9236641221374,92.1526717557252,23.306470588235296
2024-10-31T04:06:25.091822,1,-1.9599609375,1.34521484375,1.99993896484375,-64.21374045801527,-2.4198473282442747,103.27480916030534,23.306470588235296
2024-10-31T04:06:25.107784,1,-1.21435546875,1.234130859375,1.66259765625,-25.0381679389313,54.85496183206107,93.36641221374046,23.306470588235296
2024-10-31T04:06:25.123731,1,-0.235107421875,0.949462890625,0.834716796875,13.694656488549619,99.70229007633588,68.83969465648855,23.306470588235296
2024-10-31T04:06:25.139861,1,0.870361328125,0.708251953125,-0.091796875,50.30534351145038,127.90839694656489,33.54961832061068,23.306470588235296
2024-10-31T04:06:25.155827,1,1.90618896484375,0.42724609375,-0.919189453125,82.59541984732824,127.77862595419847,-30.244274809160306,23.21235294117647
2024-10-31T04:06:25.171792,1,1.99993896484375,0.18505859375,-1.519287109375,89.8854961832061,100.46564885496183,-75.32824427480917,23.306470588235296
2024-10-31T04:06:25.187747,1,1.98779296875,0.174560546875,-1.903564453125,81.52671755725191,54.908396946564885,-99.53435114503817,23.306470588235296
2024-10-31T04:06:25.203695,1,1.987548828125,0.295166015625,-1.89404296875,65.43511450381679,2.564885496183206,-103.18320610687023,23.306470588235296
2024-10-31T04:06:25.219640,1,1.771484375,0.475830078125,-1.412353515625,50.35114503816794,-41.45038167938932,-82.33587786259542,23.21235294117647
2024-10-31T04:06:25.235587,1,0.832763671875,0.675537109375,-0.588623046875,16.213740458015266,-76.97709923664122,-65.8473282442748,23.306470588235296
2024-10-31T04:06:25.251533,1,-0.1689453125,0.9638671875,0.33544921875,-21.6793893129771,-106.68702290076335,-40.00763358778626,23.306470588235296
2024-10-31T04:06:25.267481,1,-1.171875,1.237548828125,1.3330078125,-66.49618320610686,-122.81679389312977,1.549618320610687,23.40058823529412
2024-10-31T04:06:25.283422,1,-2.0,1.625244140625,1.99993896484375,-89.70229007633588,-129.10687022900763,28.27480916030534,23.306470588235296
2024-10-31T04:06:25.299368,1,-2.0,1.7890625,1.99993896484375,-95.05343511450381,-106.70992366412214,64.77862595419847,23.25941176470588
2024-10-31T04:06:25.315313,1,-1.99169921875,1.6640625,1.99993896484375,-79.58778625954199,-57.85496183206107,91.27480916030534,23.25941176470588
2024-10-31T04:06:25.331268,1,-1.812255859375,1.5341796875,1.99993896484375,-45.19083969465649,10.923664122137405,99.63358778625954,23.25941176470588
2024-10-31T04:06:25.347232,1,-0.8583984375,1.345458984375,1.287841796875,-1.3969465648854962,73.77862595419847,81.10687022900764,23.44764705882353
2024-10-31T04:06:25.363188,1,0.35931396484375,0.930419921875,0.23583984375,39.87786259541985,116.05343511450381,49.45038167938932,23.25941176470588
2024-10-31T04:06:25.379142,1,1.65618896484375,0.555908203125,-0.751953125,71.25190839694656,132.38167938931298,-0.06870229007633588,23.25941176470588
2024-10-31T04:06:25.395089,1,1.99993896484375,0.38232421875,-1.508056640625,86.12977099236642,116.22900763358778,-57.10687022900763,23.25941176470588
2024-10-31T04:06:25.411034,1,1.99993896484375,0.28857421875,-1.9052734375,83.04580152671755,67.6412213740458,-92.49618320610686,23.353529411764708
2024-10-31T04:06:25.426981,1,1.99993896484375,0.426513671875,-1.81396484375,70.99236641221374,6.534351145038168,-102.70229007633588,23.44764705882353
2024-10-31T04:06:25.442927,1,1.507568359375,0.59423828125,-1.1025390625,44.93893129770992,-48.6793893129771,-85.07633587786259,23.25941176470588
2024-10-31T04:06:25.458872,1,0.268310546875,0.857177734375,-0.02001953125,7.1603053435114505,-87.42748091603053,-57.63358778625954,23.306470588235296
2024-10-31T04:06:25.474822,1,-0.96533203125,1.005126953125,1.17041015625,-41.06106870229008,-122.54961832061069,-21.251908396946565,23.40058823529412
2024-10-31T04:06:25.490767,1,-1.97314453125,1.555908203125,1.99993896484375,-86.45801526717557,-130.33587786259542,29.603053435114504,23.21235294117647
2024-10-31T04:06:25.506712,1,-2.0,1.90283203125,1.99993896484375,-98.45038167938931,-103.83969465648855,68.57251908396947,23.306470588235296
2024-10-31T04:06:25.522655,1,-2.0,1.810791015625,1.99993896484375,-73.80916030534351,-31.641221374045802,91.61068702290076,23.306470588235296
2024-10-31T04:06:25.538603,1,-1.34130859375,1.448486328125,1.664306640625,-33.30534351145038,35.63358778625954,80.3206106870229,23.306470588235296
2024-10-31T04:06:25.554553,1,0.0263671875,0.884521484375,0.4765625,16.801526717557252,96.14503816793894,43.38167938931298,23.306470588235296
2024-10-31T04:06:25.570496,1,1.597412109375,0.47021484375,-0.638427734375,50.64885496183206,129.36641221374046,6.908396946564886,23.306470588235296
2024-10-31T04:06:25.586439,1,1.99993896484375,0.261962890625,-1.556640625,84.6030534351145,120.5114503816794,-33.12213740458015,23.40058823529412
2024-10-31T04:06:25.602383,1,1.99993896484375,0.406494140625,-1.934814453125,89.96946564885496,78.03053435114504,-109.0381679389313,23.40058823529412
2024-10-31T04:06:25.618337,1,1.99993896484375,0.291259765625,-1.6240234375,58.229007633587784,-2.1297709923664123,-111.7557251908397,23.306470588235296
2024-10-31T04:06:25.634293,1,0.878173828125,0.443603515625,-0.57275390625,35.82442748091603,-66.0381679389313,-61.02290076335878,23.306470588235296
2024-10-31T04:06:25.650244,1,-0.815185546875,0.940673828125,0.793701171875,-13.526717557251908,-121.29770992366412,-21.908396946564885,23.306470588235296
2024-10-31T04:06:25.666189,1,-1.657470703125,1.191162109375,1.921142578125,-47.30534351145038,-140.49618320610688,38.847328244274806,23.306470588235296
2024-10-31T04:06:25.682136,1,-2.0,1.37353515625,1.99993896484375,-78.35114503816794,-121.06870229007633,48.587786259541986,23.21235294117647
2024-10-31T04:06:25.698081,1,-2.0,1.99993896484375,1.99993896484375,-138.45038167938932,-92.93129770992367,59.17557251908397,23.306470588235296
2024-10-31T04:06:25.714025,1,-2.0,1.702392578125,1.99993896484375,-77.3587786259542,-27.19083969465649,89.21374045801527,23.21235294117647
2024-10-31T04:06:25.729974,1,-1.002197265625,1.424072265625,1.41748046875,-37.404580152671755,46.12213740458015,100.9618320610687,23.25941176470588
2024-10-31T04:06:25.745918,1,0.408203125,0.857666015625,0.361083984375,14.778625954198473,114.10687022900764,47.02290076335878,23.353529411764708
2024-10-31T04:06:25.761865,1,1.793701171875,0.242919921875,-0.72021484375,59.9236641221374,136.61068702290078,0.19083969465648856,23.353529411764708
2024-10-31T04:06:25.777812,1,1.99993896484375,0.134033203125,-1.47509765625,95.34351145038168,125.09160305343511,-39.83206106870229,23.353529411764708
2024-10-31T04:06:25.793758,1,1.99993896484375,0.32177734375,-2.0,100.09923664122137,94.33587786259542,-90.49618320610686,23.25941176470588
2024-10-31T04:06:25.809706,1,1.99993896484375,0.38623046875,-1.83056640625,69.21374045801527,18.80916030534351,-100.25190839694656,23.353529411764708
2024-10-31T04:06:25.825660,1,0.626220703125,0.513427734375,-1.864013671875,31.282442748091604,-61.900763358778626,-83.80152671755725,23.25941176470588
2024-10-31T04:06:25.841621,1,-0.69287109375,1.051025390625,-0.98974609375,-17.755725190839694,-118.29770992366412,-13.122137404580153,23.25941176470588
2024-10-31T04:06:25.857569,1,-1.890869140625,1.368896484375,0.29681396484375,-74.19847328244275,-127.42748091603053,23.946564885496183,23.25941176470588
2024-10-31T04:06:25.873514,1,-2.0,1.80517578125,1.56243896484375,-97.80916030534351,-127.01526717557252,68.99236641221374,23.353529411764708
2024-10-31T04:06:25.889460,1,-2.0,1.98681640625,1.99993896484375,-93.38167938931298,-68.23664122137404,93.48091603053435,23.25941176470588
2024-10-31T04:06:25.905403,1,-1.620849609375,1.54345703125,1.985595703125,-60.396946564885496,-3.5572519083969465,87.3206106870229,23.353529411764708
2024-10-31T04:06:25.921348,1,-0.137939453125,1.312255859375,1.992919921875,-24.053435114503817,75.78625954198473,78.20610687022901,23.353529411764708
2024-10-31T04:06:25.937293,1,1.1337890625,0.896240234375,1.415771484375,33.55725190839695,137.0916030534351,37.48854961832061,23.353529411764708
2024-10-31T04:06:25.953237,1,1.99993896484375,0.493408203125,0.205810546875,77.8854961832061,127.6793893129771,-12.48091603053435,23.306470588235296
2024-10-31T04:06:25.969206,1,1.99993896484375,0.347900390625,-1.057861328125,88.14503816793894,104.1145038167939,-68.26717557251908,23.353529411764708
2024-10-31T04:06:25.985155,1,1.99993896484375,0.359619140625,-1.71435546875,73.77862595419847,42.9236641221374,-104.96946564885496,23.306470588235296
2024-10-31T04:06:26.001100,1,0.911376953125,0.768310546875,-1.901123046875,46.61832061068702,-31.83206106870229,-94.04580152671755,23.21235294117647
2024-10-31T04:06:26.017056,1,-0.485595703125,1.0751953125,-1.07958984375,-10.557251908396946,-118.82442748091603,-33.86259541984733,23.21235294117647
2024-10-31T04:06:26.033007,1,-1.903564453125,1.5009765625,0.24993896484375,-59.13740458015267,-128.7709923664122,3.8396946564885495,23.21235294117647
2024-10-31T04:06:26.048952,1,-2.0,1.9775390625,1.87493896484375,-105.14503816793894,-111.48091603053435,52.61068702290076,23.306470588235296
2024-10-31T04:06:26.064892,1,-2.0,1.7666015625,1.99993896484375,-96.1145038167939,-97.06106870229007,85.61832061068702,23.306470588235296
2024-10-31T04:06:26.080860,1,-1.027099609375,1.47119140625,1.99462890625,-53.083969465648856,-25.580152671755727,104.38167938931298,23.40058823529412
2024-10-31T04:06:26.096827,1,0.10498046875,1.1318359375,1.89453125,-19.022900763358777,73.7557251908397,85.76335877862596,23.21235294117647
2024-10-31T04:06:26.112779,1,1.56005859375,0.25146484375,0.90771484375,47.31297709923664,136.5267175572519,21.206106870229007,23.306470588235296
2024-10-31T04:06:26.128729,1,1.99993896484375,0.1220703125,-0.164794921875,84.7557251908397,146.01526717557252,-32.908396946564885,23.306470588235296
2024-10-31T04:06:26.144672,1,1.99993896484375,0.21240234375,-1.32763671875,97.1526717557252,96.81679389312977,-83.87022900763358,23.306470588235296
2024-10-31T04:06:26.160622,1,1.99993896484375,0.383056640625,-1.985595703125,76.80152671755725,32.19847328244275,-108.6030534351145,23.306470588235296
2024-10-31T04:06:26.176574,1,0.4833984375,0.7294921875,-1.6572265625,30.900763358778626,-64.70992366412214,-86.06106870229007,23.306470588235296
2024-10-31T04:06:26.192524,1,-1.424560546875,1.12060546875,-0.547119140625,-21.290076335877863,-112.48091603053435,-25.748091603053435,23.306470588235296
2024-10-31T04:06:26.208474,1,-2.0,1.07177734375,1.10931396484375,-74.4885496183206,-139.58778625954199,43.091603053435115,23.306470588235296
2024-10-31T04:06:26.224421,1,-2.0,1.73431396484375,1.99993896484375,-128.9618320610687,-105.79389312977099,87.48091603053435,23.40058823529412
2024-10-31T04:06:26.240364,1,-1.549072265625,1.93701171875,1.989990234375,-66.91603053435115,-5.198473282442748,95.70992366412214,23.40058823529412
2024-10-31T04:06:26.256313,1,0.15625,1.632568359375,1.98779296875,0.9465648854961832,84.27480916030534,76.74809160305344,23.306470588235296
2024-10-31T04:06:26.272262,1,1.87255859375,1.170654296875,0.51904296875,57.80152671755725,128.73282442748092,19.412213740458014,23.353529411764708
2024-10-31T04:06:26.288206,1,1.99993896484375,0.53857421875,-0.47021484375,96.29007633587786,153.3053435114504,-31.47328244274809,23.353529411764708
2024-10-31T04:06:26.304149,1,1.99993896484375,0.14599609375,-1.574951171875,96.13740458015268,85.3206106870229,-121.16793893129771,23.165294117647058
2024-10-31T04:06:26.320090,1,1.37939453125,0.1298828125,-1.909912109375,66.58015267175573,3.6106870229007635,-110.98473282442748,23.353529411764708
2024-10-31T04:06:26.336040,1,-0.07080078125,0.2099609375,-1.46484375,24.129770992366414,-71.22137404580153,-70.07633587786259,23.25941176470588
2024-10-31T04:06:26.351997,1,-1.78564453125,0.666259765625,-0.125,-44.045801526717554,-129.6259541984733,-18.893129770992367,23.353529411764708
2024-10-31T04:06:26.367947,1,-2.0,1.081298828125,1.42181396484375,-87.50381679389314,-143.51908396946564,45.2442748091603,23.25941176470588
2024-10-31T04:06:26.383890,1,-2.0,1.5615234375,1.99993896484375,-101.81679389312977,-94.2824427480916,92.02290076335878,23.353529411764708
2024-10-31T04:06:26.399836,1,-1.094482421875,1.79248046875,1.992431640625,-61.213740458015266,-11.083969465648854,84.87786259541984,23.25941176470588
2024-10-31T04:06:26.415787,1,0.7001953125,1.48486328125,1.657470703125,-3.183206106870229,83.91603053435115,70.69465648854961,23.25941176470588
2024-10-31T04:06:26.431732,1,1.99993896484375,1.015869140625,0.384033203125,58.42748091603053,142.3587786259542,4.694656488549619,23.25941176470588
2024-10-31T04:06:26.447677,1,1.90618896484375,0.569091796875,-0.881591796875,95.19083969465649,138.4732824427481,-42.221374045801525,23.353529411764708
2024-10-31T04:06:26.464073,1,1.99993896484375,0.19970703125,-1.675537109375,78.12213740458016,23.129770992366414,-114.0,23.306470588235296
2024-10-31T04:06:26.480019,1,1.0439453125,0.5810546875,-0.7900390625,25.458015267175572,-68.09160305343511,-80.16793893129771,23.306470588235296
2024-10-31T04:06:26.496468,1,-0.636474609375,0.845947265625,0.81243896484375,-52.93893129770992,-114.81679389312977,14.076335877862595,23.306470588235296
2024-10-31T04:06:26.512385,1,-1.921875,1.20306396484375,1.99993896484375,-113.4885496183206,-128.51908396946564,37.93129770992366,23.306470588235296
2024-10-31T04:06:26.528298,1,-2.0,1.4638671875,1.99993896484375,-110.49618320610686,-76.45801526717557,68.53435114503817,23.25941176470588
2024-10-31T04:06:26.544209,1,-1.990478515625,1.894287109375,1.99993896484375,-90.74809160305344,-16.870229007633586,91.79389312977099,23.353529411764708
2024-10-31T04:06:26.560121,1,-1.85888671875,1.665283203125,1.9150390625,-34.79389312977099,32.70992366412214,94.1145038167939,23.306470588235296
2024-10-31T04:06:26.576034,1,-0.41552734375,1.397216796875,0.92041015625,5.190839694656488,89.09923664122137,60.282442748091604,23.306470588235296
2024-10-31T04:06:26.591945,1,0.93743896484375,0.727783203125,-0.21923828125,52.79389312977099,134.00763358778627,10.625954198473282,23.40058823529412
2024-10-31T04:06:26.607858,1,1.99993896484375,0.093505859375,-0.976806640625,88.96946564885496,142.95419847328245,-39.900763358778626,23.25941176470588
2024-10-31T04:06:26.623771,1,1.992431640625,0.360107421875,-1.861328125,105.13740458015268,102.7175572519084,-83.38167938931298,23.353529411764708
2024-10-31T04:06:26.639682,1,1.99993896484375,0.41357421875,-1.871337890625,75.57251908396947,15.297709923664122,-100.96946564885496,23.306470588235296
2024-10-31T04:06:26.655595,1,1.146484375,0.4775390625,-0.66552734375,16.541984732824428,-73.6793893129771,-75.91603053435115,23.306470588235296
2024-10-31T04:06:26.671507,1,-0.75830078125,1.03369140625,0.79541015625,-21.557251908396946,-121.64885496183206,-7.67175572519084,23.306470588235296
2024-10-31T04:06:26.687419,1,-2.0,1.47509765625,1.99993896484375,-72.74809160305344,-132.34351145038167,29.778625954198475,23.306470588235296
2024-10-31T04:06:26.703330,1,-2.0,1.99993896484375,1.99993896484375,-116.62595419847328,-121.78625954198473,78.7175572519084,23.353529411764708
2024-10-31T04:06:26.719268,1,-1.746337890625,1.698486328125,1.99993896484375,-97.53435114503817,-45.55725190839695,100.7557251908397,23.353529411764708
2024-10-31T04:06:26.735210,1,-0.578125,1.40087890625,1.9873046875,-26.6793893129771,53.847328244274806,86.03053435114504,23.353529411764708
2024-10-31T04:06:26.751153,1,1.04052734375,0.73974609375,1.431396484375,35.2442748091603,128.74809160305344,37.847328244274806,23.44764705882353
2024-10-31T04:06:26.767096,1,1.99993896484375,0.421142578125,0.09912109375,81.13740458015268,140.3587786259542,-15.969465648854962,23.353529411764708
2024-10-31T04:06:26.783038,1,1.99993896484375,0.261962890625,-1.13427734375,92.43511450381679,100.62595419847328,-71.02290076335878,23.21235294117647
2024-10-31T04:06:26.798982,1,1.99993896484375,0.279296875,-1.885009765625,71.34351145038168,32.49618320610687,-115.43511450381679,23.306470588235296
2024-10-31T04:06:26.814929,1,0.383544921875,0.498779296875,-1.893310546875,24.045801526717558,-46.0763358778626,-77.19083969465649,23.306470588235296
2024-10-31T04:06:26.830884,1,-1.39208984375,1.0986328125,-0.49951171875,-39.42748091603053,-125.21374045801527,-5.862595419847328,23.40058823529412
2024-10-31T04:06:26.846850,1,-2.0,1.56689453125,1.17181396484375,-85.6412213740458,-150.58778625954199,39.64885496183206,23.306470588235296
2024-10-31T04:06:26.862792,1,-2.0,1.7734375,1.99993896484375,-105.93893129770993,-97.50381679389314,101.66412213740458,23.306470588235296
2024-10-31T04:06:26.878735,1,-0.741455078125,1.196044921875,1.992919921875,-50.87786259541985,11.854961832061068,81.4885496183206,23.40058823529412
2024-10-31T04:06:26.894680,1,1.220458984375,0.6376953125,1.284423828125,24.137404580152673,97.74809160305344,37.2442748091603,23.306470588235296
2024-10-31T04:06:26.910628,1,1.99993896484375,0.080810546875,-0.3515625,70.91603053435115,125.97709923664122,-39.23664122137404,23.306470588235296
2024-10-31T04:06:26.926572,1,1.99993896484375,0.01708984375,-1.22705078125,100.93129770992367,97.95419847328245,-93.29007633587786,23.306470588235296
2024-10-31T04:06:26.942522,1,1.661376953125,0.39794921875,-1.9951171875,67.62595419847328,17.427480916030536,-93.23664122137404,23.306470588235296
2024-10-31T04:06:26.958466,1,-0.26025390625,0.631591796875,-1.517578125,20.061068702290076,-88.40458015267176,-77.13740458015268,23.306470588235296
2024-10-31T04:06:26.974411,1,-1.921630859375,0.735107421875,-0.1123046875,-36.38931297709924,-121.90076335877863,-9.923664122137405,23.353529411764708
2024-10-31T04:06:26.990355,1,-2.0,1.17041015625,1.49993896484375,-82.67175572519083,-135.34351145038167,49.51908396946565,23.353529411764708
2024-10-31T04:06:27.006296,1,-2.0,1.553466796875,1.99993896484375,-93.5114503816794,-92.19083969465649,94.37404580152672,23.25941176470588
2024-10-31T04:06:27.022241,1,-1.12939453125,1.790771484375,1.995361328125,-57.083969465648856,-6.854961832061068,90.3206106870229,23.353529411764708
2024-10-31T04:06:27.038185,1,0.809326171875,1.494140625,1.591064453125,-1.6259541984732824,87.82442748091603,70.54198473282443,23.25941176470588
2024-10-31T04:06:27.054128,1,1.99993896484375,0.87939453125,0.112548828125,64.45038167938931,144.54961832061068,-4.076335877862595,23.353529411764708
2024-10-31T04:06:27.070195,1,1.99993896484375,0.31494140625,-1.216552734375,96.89312977099236,130.70229007633588,-75.65648854961832,23.306470588235296
2024-10-31T04:06:27.086153,1,1.71044921875,0.267822265625,-1.999755859375,72.3206106870229,30.213740458015266,-98.33587786259542,23.40058823529412
2024-10-31T04:06:27.102111,1,-0.099365234375,0.43994140625,-1.524658203125,14.366412213740459,-83.63358778625954,-56.37404580152672,23.306470588235296
2024-10-31T04:06:27.118059,1,-1.81201171875,0.751708984375,0.088623046875,-42.465648854961835,-146.6259541984733,10.045801526717558,23.306470588235296
2024-10-31T04:06:27.134016,1,-2.0,1.2822265625,1.82806396484375,-95.27480916030534,-121.59541984732824,41.20610687022901,23.306470588235296
2024-10-31T04:06:27.149969,1,-1.955078125,1.99993896484375,1.99993896484375,-118.61832061068702,-59.85496183206107,76.23664122137404,23.306470588235296
2024-10-31T04:06:27.165917,1,-0.400146484375,1.984619140625,1.985107421875,-44.54961832061068,61.61068702290076,93.06106870229007,23.353529411764708
2024-10-31T04:06:27.181863,1,1.124755859375,1.5712890625,1.331787109375,37.961832061068705,125.23664122137404,52.465648854961835,23.353529411764708
2024-10-31T04:06:27.197807,1,1.99993896484375,0.916015625,0.072265625,80.44274809160305,136.70229007633588,-5.114503816793893,23.25941176470588
2024-10-31T04:06:27.213756,1,1.99993896484375,0.5107421875,-1.152099609375,91.96946564885496,124.56488549618321,-79.06106870229007,23.44764705882353
2024-10-31T04:06:27.229707,1,1.99993896484375,0.31640625,-1.914794921875,76.93893129770993,47.29770992366412,-107.64885496183206,23.353529411764708
2024-10-31T04:06:27.245651,1,0.48828125,0.313720703125,-1.716064453125,43.603053435114504,-39.67175572519084,-97.23664122137404,23.353529411764708
2024-10-31T04:06:27.261592,1,-1.38037109375,0.6044921875,-0.4921875,-11.49618320610687,-108.90076335877863,-26.366412213740457,23.353529411764708
2024-10-31T04:06:27.277535,1,-2.0,1.04345703125,1.20306396484375,-80.06106870229007,-145.0229007633588,29.229007633587788,23.353529411764708
2024-10-31T04:06:27.293478,1,-2.0,1.41552734375,1.99993896484375,-97.09923664122137,-103.8854961832061,74.81679389312977,23.353529411764708
2024-10-31T04:06:27.309425,1,-1.99755859375,1.73095703125,1.994140625,-65.92366412213741,-21.15267175572519,96.01526717557252,23.306470588235296
2024-10-31T04:06:27.325382,1,-1.55615234375,1.80419921875,1.656494140625,-4.076335877862595,49.80152671755725,82.93129770992367,23.40058823529412
2024-10-31T04:06:27.341339,1,0.34368896484375,1.1044921875,0.304931640625,42.05343511450382,129.51908396946564,11.251908396946565,23.306470588235296
2024-10-31T04:06:27.357286,1,1.98431396484375,0.39208984375,-0.990966796875,87.80916030534351,114.8473282442748,-53.06106870229008,23.306470588235296
2024-10-31T04:06:27.373231,1,1.99993896484375,0.18505859375,-1.56640625,99.3206106870229,93.07633587786259,-92.13740458015268,23.306470588235296
2024-10-31T04:06:27.389175,1,1.98779296875,0.391845703125,-1.9404296875,56.404580152671755,-12.82442748091603,-106.94656488549619,23.306470588235296
2024-10-31T04:06:27.405118,1,1.3505859375,0.51611328125,-0.865478515625,14.206106870229007,-89.2824427480916,-31.778625954198475,23.40058823529412
2024-10-31T04:06:27.421061,1,-0.375,0.8955078125,0.49993896484375,-36.99236641221374,-138.3740458015267,14.01526717557252,23.306470588235296
2024-10-31T04:06:27.437013,1,-1.953125,1.21868896484375,1.99993896484375,-86.73282442748092,-112.90076335877863,48.69465648854962,23.306470588235296
2024-10-31T04:06:27.452964,1,-2.0,1.611328125,1.99993896484375,-108.70992366412214,-75.9618320610687,82.2824427480916,23.40058823529412
2024-10-31T04:06:27.468906,1,-1.990234375,1.91259765625,1.99993896484375,-66.95419847328245,-8.557251908396946,109.58015267175573,23.25941176470588
2024-10-31T04:06:27.484855,1,-1.123046875,1.60205078125,1.4189453125,-2.8473282442748094,72.6030534351145,67.40458015267176,23.353529411764708
2024-10-31T04:06:27.500803,1,0.54681396484375,0.639892578125,-0.123046875,63.06106870229008,141.96946564885496,9.664122137404581,23.353529411764708
2024-10-31T04:06:27.516744,1,1.99993896484375,0.05908203125,-1.183837890625,86.7175572519084,137.73282442748092,-62.091603053435115,23.25941176470588
2024-10-31T04:06:27.532690,1,1.99365234375,0.25439453125,-1.92333984375,95.77862595419847,56.14503816793893,-119.86259541984732,23.44764705882353
2024-10-31T04:06:27.548634,1,1.907958984375,0.44384765625,-1.392333984375,42.44274809160305,-51.969465648854964,-91.0,23.25941176470588
2024-10-31T04:06:27.564576,1,-0.0625,0.8681640625,0.326904296875,-18.236641221374047,-113.25954198473282,-14.488549618320612,23.25941176470588
2024-10-31T04:06:27.580520,1,-1.921875,1.37493896484375,1.99993896484375,-107.12213740458016,-142.59541984732823,15.381679389312977,23.25941176470588
2024-10-31T04:06:27.596463,1,-1.993408203125,1.755615234375,1.99993896484375,-114.96946564885496,-93.79389312977099,101.93893129770993,23.44764705882353
2024-10-31T04:06:27.612408,1,-1.994384765625,1.7763671875,1.99993896484375,-50.18320610687023,0.9541984732824428,90.83969465648855,23.40058823529412
2024-10-31T04:06:27.628354,1,-0.255615234375,1.1650390625,0.646240234375,12.732824427480915,106.22137404580153,34.656488549618324,23.40058823529412
2024-10-31T04:06:27.644297,1,1.70306396484375,0.376220703125,-0.88818359375,68.77099236641222,125.07633587786259,-15.320610687022901,23.40058823529412
2024-10-31T04:06:27.660241,1,1.99993896484375,-0.23876953125,-1.43701171875,91.41221374045801,114.66412213740458,-89.65648854961832,23.306470588235296
2024-10-31T04:06:27.676190,1,1.991455078125,0.0048828125,-1.908447265625,76.99236641221374,27.923664122137403,-110.76335877862596,23.306470588235296
2024-10-31T04:06:27.692133,1,1.569091796875,0.470703125,-1.002197265625,42.51908396946565,-60.099236641221374,-79.58015267175573,23.21235294117647
2024-10-31T04:06:27.708081,1,-0.46875,0.86962890625,0.496826171875,-20.633587786259543,-124.22137404580153,-34.11450381679389,23.40058823529412
2024-10-31T04:06:27.724044,1,-2.0,1.47802734375,1.99993896484375,-91.40458015267176,-136.6793893129771,45.16793893129771,23.306470588235296
2024-10-31T04:06:27.739996,1,-1.991943359375,1.99993896484375,1.99993896484375,-116.02290076335878,-104.80916030534351,100.43511450381679,23.306470588235296
2024-10-31T04:06:27.755938,1,-1.643310546875,1.734619140625,1.91943359375,-61.229007633587784,10.572519083969466,98.62595419847328,23.306470588235296
2024-10-31T04:06:27.771887,1,-0.09381103515625,1.2734375,0.62744140625,28.27480916030534,113.93893129770993,56.43511450381679,23.353529411764708
2024-10-31T04:06:27.787836,1,1.73431396484375,0.54150390625,-0.842041015625,78.01526717557252,133.87786259541986,-13.580152671755725,23.25941176470588
2024-10-31T04:06:27.803784,1,1.99993896484375,0.123291015625,-1.838134765625,95.46564885496183,114.58015267175573,-80.22900763358778,23.353529411764708
2024-10-31T04:06:27.819729,1,1.984619140625,0.05810546875,-1.849853515625,57.02290076335878,30.786259541984734,-111.38167938931298,23.353529411764708
2024-10-31T04:06:27.835684,1,1.150146484375,0.4853515625,-0.79296875,26.83206106870229,-45.66412213740458,-67.00763358778626,23.353529411764708
2024-10-31T04:06:27.851639,1,-0.718017578125,1.05908203125,1.099853515625,-43.00763358778626,-118.19083969465649,-17.564885496183205,23.353529411764708
2024-10-31T04:06:27.867586,1,-2.0,1.4619140625,1.99993896484375,-96.58778625954199,-134.10687022900763,44.87022900763359,23.25941176470588
2024-10-31T04:06:27.883527,1,-2.0,1.9208984375,1.99993896484375,-98.21374045801527,-72.3206106870229,100.90839694656489,23.306470588235296
2024-10-31T04:06:27.899470,1,-1.85400390625,1.770751953125,1.91748046875,-51.282442748091604,6.6183206106870225,89.55725190839695,23.306470588235296
2024-10-31T04:06:27.915415,1,0.01318359375,1.23486328125,0.48486328125,2.381679389312977,91.0381679389313,58.52671755725191,23.306470588235296
2024-10-31T04:06:27.931365,1,1.9443359375,0.625244140625,-1.01513671875,71.55725190839695,135.5648854961832,-4.3893129770992365,23.306470588235296
2024-10-31T04:06:27.947311,1,1.99993896484375,0.14404296875,-1.62841796875,75.8473282442748,111.01526717557252,-91.58778625954199,23.306470588235296
2024-10-31T04:06:27.963256,1,1.99993896484375,0.255859375,-1.68359375,75.02290076335878,43.36641221374046,-104.66412213740458,23.306470588235296
2024-10-31T04:06:27.979199,1,0.15478515625,0.73486328125,0.12158203125,30.229007633587788,-75.80152671755725,-57.13740458015267,23.40058823529412
2024-10-31T04:06:27.995141,1,-1.5087890625,1.267578125,1.928466796875,-50.10687022900763,-147.4885496183206,34.41984732824427,23.21235294117647
2024-10-31T04:06:28.011082,1,-2.0,1.99993896484375,1.99993896484375,-135.14503816793894,-117.92366412213741,69.74045801526718,23.40058823529412
2024-10-31T04:06:28.027025,1,-1.95654296875,1.941650390625,1.96533203125,-84.94656488549619,-26.068702290076335,94.43511450381679,23.306470588235296
2024-10-31T04:06:28.042971,1,0.10888671875,1.212890625,0.293212890625,14.01526717557252,98.1526717557252,58.57251908396947,23.40058823529412
2024-10-31T04:06:28.058918,1,1.99993896484375,0.222412109375,-0.8720703125,79.63358778625954,150.5801526717557,-28.96946564885496,23.306470588235296
2024-10-31T04:06:28.074885,1,1.99993896484375,0.240234375,-1.918212890625,107.01526717557252,108.4885496183206,-97.58778625954199,23.306470588235296
2024-10-31T04:06:28.090848,1,1.99993896484375,0.2392578125,-1.549072265625,66.65648854961832,4.526717557251908,-95.20610687022901,23.306470588235296
2024-10-31T04:06:28.106794,1,0.23779296875,0.46484375,0.1474609375,13.641221374045802,-96.36641221374046,-37.23664122137404,23.21235294117647
2024-10-31T04:06:28.122738,1,-1.771728515625,1.134521484375,1.814697265625,-46.97709923664122,-144.3740458015267,29.419847328244273,23.306470588235296
2024-10-31T04:06:28.138678,1,-2.0,1.6279296875,1.99993896484375,-105.36641221374046,-98.31297709923665,60.38167938931298,23.306470588235296
2024-10-31T04:06:28.154626,1,-2.0,1.99993896484375,1.99993896484375,-94.64885496183206,-27.671755725190838,100.9618320610687,23.40058823529412
2024-10-31T04:06:28.170750,1,-0.7392578125,1.435302734375,1.004150390625,-19.893129770992367,57.12213740458015,79.78625954198473,23.306470588235296
2024-10-31T04:06:28.186706,1,1.288330078125,0.798583984375,-0.569580078125,55.83206106870229,132.8854961832061,13.900763358778626,23.306470588235296
2024-10-31T04:06:28.202652,1,1.99993896484375,0.49462890625,-1.6455078125,91.64885496183206,125.41221374045801,-68.92366412213741,23.40058823529412
2024-10-31T04:06:28.218597,1,1.99993896484375,0.391845703125,-1.965087890625,88.46564885496183,57.29007633587786,-96.6030534351145,23.306470588235296
2024-10-31T04:06:28.234544,1,1.392333984375,0.44677734375,-0.91748046875,31.099236641221374,-67.38931297709924,-81.58778625954199,23.306470588235296
2024-10-31T04:06:28.250487,1,-0.688720703125,0.99169921875,0.959716796875,-29.625954198473284,-127.86259541984732,-19.435114503816795,23.40058823529412
2024-10-31T04:06:28.266432,1,-2.0,1.38330078125,1.99993896484375,-75.23664122137404,-115.34351145038168,18.099236641221374,23.306470588235296
2024-10-31T04:06:28.282376,1,-2.0,1.759765625,1.99993896484375,-62.587786259541986,-30.259541984732824,92.59541984732824,23.306470588235296
2024-10-31T04:06:28.298320,1,-1.543701171875,1.622802734375,1.677001953125,-30.045801526717558,45.725190839694655,85.72519083969466,23.306470588235296
2024-10-31T04:06:28.314261,1,0.51904296875,0.599365234375,0.12060546875,30.641221374045802,107.25954198473282,33.93893129770992,23.306470588235296
2024-10-31T04:06:28.330229,1,1.99993896484375,0.2451171875,-1.39306640625,80.04580152671755,138.29770992366412,-31.603053435114504,23.40058823529412
2024-10-31T04:06:28.346192,1,1.99993896484375,0.240966796875,-1.947265625,94.74045801526718,96.02290076335878,-99.50381679389314,23.306470588235296
2024-10-31T04:06:28.362146,1,1.950439453125,0.439208984375,-1.4072265625,62.58015267175573,1.0076335877862594,-105.12213740458016,23.306470588235296
2024-10-31T04:06:28.378096,1,0.076416015625,0.7978515625,0.19921875,15.541984732824428,-89.6030534351145,-50.02290076335878,23.306470588235296
2024-10-31T04:06:28.394040,1,-1.762451171875,1.22265625,1.978759765625,-57.94656488549618,-142.42748091603053,13.366412213740459,23.306470588235296
2024-10-31T04:06:28.409984,1,-2.0,1.4619140625,1.99993896484375,-100.90839694656489,-123.30534351145039,76.54198473282443,23.306470588235296
2024-10-31T04:06:28.425927,1,-2.0,1.696044921875,1.99993896484375,-72.43511450381679,-38.282442748091604,93.8854961832061,23.40058823529412
2024-10-31T04:06:28.441871,1,-0.121826171875,1.213134765625,0.65185546875,-15.450381679389313,77.45801526717557,69.08396946564885,23.40058823529412
2024-10-31T04:06:28.457817,1,1.90673828125,0.501708984375,-0.892333984375,66.94656488549619,151.6412213740458,-0.5954198473282443,23.306470588235296
2024-10-31T04:06:28.473762,1,1.99993896484375,0.2998046875,-1.917236328125,97.7557251908397,123.18320610687023,-91.03053435114504,23.306470588235296
2024-10-31T04:06:28.489706,1,1.99993896484375,0.410888671875,-1.508544921875,66.48091603053435,8.977099236641221,-108.10687022900764,23.353529411764708
2024-10-31T04:06:28.505649,1,0.291015625,0.78515625,0.1201171875,12.763358778625955,-84.29007633587786,-60.541984732824424,23.25941176470588
2024-10-31T04:06:28.521594,1,-1.8837890625,1.252197265625,1.876220703125,-60.343511450381676,-133.90076335877862,-6.2748091603053435,23.25941176470588
2024-10-31T04:06:28.537540,1,-2.0,1.865478515625,1.99993896484375,-102.72519083969466,-123.85496183206106,77.30534351145039,23.353529411764708
2024-10-31T04:06:28.553483,1,-1.86474609375,1.700439453125,1.99993896484375,-89.25954198473282,-51.16793893129771,98.19083969465649,23.25941176470588
2024-10-31T04:06:28.569430,1,-0.313232421875,1.237060546875,1.98681640625,-19.786259541984734,73.8854961832061,79.6793893129771,23.353529411764708
2024-10-31T04:06:28.585372,1,1.635009765625,0.421630859375,0.9453125,59.412213740458014,142.0763358778626,13.114503816793894,23.353529411764708
2024-10-31T04:06:28.601330,1,1.99993896484375,0.120849609375,-0.65625,95.54961832061069,123.82442748091603,-69.70992366412214,23.353529411764708
2024-10-31T04:06:28.617279,1,1.99993896484375,0.14306640625,-1.79150390625,85.74045801526718,56.0763358778626,-110.20610687022901,23.353529411764708
2024-10-31T04:06:28.633222,1,0.942626953125,0.549560546875,-1.84130859375,37.37404580152672,-46.74809160305343,-94.55725190839695,23.353529411764708
2024-10-31T04:06:28.649164,1,-1.273193359375,0.89794921875,-0.79150390625,-15.305343511450381,-112.82442748091603,-23.52671755725191,23.306470588235296
2024-10-31T04:06:28.665109,1,-2.0,1.66015625,1.23431396484375,-100.86259541984732,-145.83969465648855,48.19847328244275,23.306470588235296
2024-10-31T04:06:28.681051,1,-2.0,1.954833984375,1.99993896484375,-110.54198473282443,-99.93129770992367,83.77099236641222,23.40058823529412
2024-10-31T04:06:28.696990,1,-0.6337890625,1.534423828125,1.988525390625,-52.51908396946565,39.412213740458014,96.2442748091603,23.21235294117647
2024-10-31T04:06:28.712933,1,1.141845703125,0.651611328125,1.408203125,57.16030534351145,150.2824427480916,39.86259541984733,23.306470588235296
2024-10-31T04:06:28.728875,1,1.99993896484375,0.239990234375,-0.2998046875,102.41221374045801,156.64885496183206,-83.54198473282443,23.21235294117647
2024-10-31T04:06:28.744818,1,1.99993896484375,0.0888671875,-1.80029296875,98.25190839694656,65.3206106870229,-110.31297709923665,23.306470588235296
2024-10-31T04:06:28.760766,1,0.507568359375,0.263671875,-1.76904296875,42.56488549618321,-46.56488549618321,-74.12213740458016,23.306470588235296
2024-10-31T04:06:28.776716,1,-1.80126953125,0.74072265625,-0.14453125,-36.74045801526717,-135.00763358778627,-6.290076335877862,23.306470588235296
2024-10-31T04:06:28.792665,1,-2.0,1.240234375,1.92181396484375,-103.52671755725191,-130.9770992366412,73.19847328244275,23.306470588235296
2024-10-31T04:06:28.808609,1,-1.835205078125,1.99609375,1.996337890625,-86.93129770992367,-54.3587786259542,94.58778625954199,23.306470588235296
2024-10-31T04:06:28.824550,1,0.081787109375,1.79638671875,1.98779296875,-18.450381679389313,73.29770992366412,84.0,23.25941176470588
2024-10-31T04:06:28.840502,1,1.99993896484375,1.2626953125,0.5712890625,61.534351145038165,146.6030534351145,15.48091603053435,23.353529411764708
2024-10-31T04:06:28.856459,1,1.99993896484375,0.475830078125,-0.96875,99.62595419847328,124.98473282442748,-70.78625954198473,23.353529411764708
2024-10-31T04:06:28.872413,1,1.99993896484375,0.294921875,-1.959228515625,79.13740458015268,46.38167938931298,-112.10687022900764,23.25941176470588
2024-10-31T04:06:28.888363,1,0.01220703125,0.2822265625,-1.521240234375,29.68702290076336,-64.81679389312977,-90.08396946564885,23.25941176470588
2024-10-31T04:06:28.904305,1,-2.0,0.757080078125,0.14056396484375,-45.458015267175576,-128.61832061068702,-5.297709923664122,23.353529411764708
2024-10-31T04:06:28.920248,1,-2.0,1.31243896484375,1.99993896484375,-137.64885496183206,-136.03053435114504,72.54961832061069,23.353529411764708
2024-10-31T04:06:28.936194,1,-1.559326171875,1.849609375,1.99658203125,-87.70229007633588,-63.47328244274809,100.96946564885496,23.353529411764708
2024-10-31T04:06:28.952143,1,0.58935546875,1.529541015625,1.732666015625,-8.49618320610687,93.63358778625954,69.72519083969466,23.25941176470588
2024-10-31T04:06:28.968091,1,1.99993896484375,0.993408203125,-0.039794921875,74.45801526717557,147.5648854961832,-17.748091603053435,23.25941176470588
2024-10-31T04:06:28.984035,1,1.99993896484375,0.439208984375,-1.6650390625,96.80152671755725,104.35114503816794,-95.51908396946565,23.25941176470588
2024-10-31T04:06:28.999984,1,1.9931640625,0.10498046875,-1.998779296875,60.62595419847328,-8.557251908396946,-95.55725190839695,23.353529411764708
2024-10-31T04:06:29.015934,1,1.1240234375,0.474609375,-0.808837890625,-6.847328244274809,-116.74809160305344,-49.86259541984733,23.306470588235296
2024-10-31T04:06:29.031883,1,-1.03125,1.101806640625,1.43743896484375,-85.3587786259542,-135.24427480916032,24.778625954198475,23.306470588235296
2024-10-31T04:06:29.047833,1,-2.0,1.802734375,1.99993896484375,-109.70229007633588,-76.83206106870229,96.90839694656489,23.306470588235296
2024-10-31T04:06:29.063771,1,-1.990966796875,1.98583984375,1.987060546875,-41.213740458015266,13.801526717557252,104.95419847328245,23.306470588235296
2024-10-31T04:06:29.079733,1,-0.942138671875,1.685302734375,1.176513671875,29.541984732824428,122.83206106870229,48.16793893129771,23.306470588235296
2024-10-31T04:06:29.095690,1,0.99993896484375,0.66650390625,-0.20166015625,84.45038167938931,137.38167938931298,-15.51908396946565,23.21235294117647
2024-10-31T04:06:29.111636,1,1.99993896484375,0.336181640625,-1.5,101.16030534351145,126.97709923664122,-90.73282442748092,23.306470588235296
2024-10-31T04:06:29.127581,1,1.994873046875,0.554931640625,-1.973388671875,82.8854961832061,29.572519083969464,-116.80916030534351,23.40058823529412
2024-10-31T04:06:29.143524,1,1.35888671875,0.61376953125,-1.181884765625,26.770992366412212,-74.09923664122137,-64.18320610687023,23.306470588235296
2024-10-31T04:06:29.159471,1,-0.6875,0.989013671875,0.81640625,-47.778625954198475,-148.4885496183206,19.34351145038168,23.306470588235296
2024-10-31T04:06:29.175414,1,-2.0,1.729248046875,1.99993896484375,-101.80916030534351,-132.15267175572518,78.46564885496183,23.306470588235296
2024-10-31T04:06:29.191364,1,-1.9951171875,1.9990234375,1.99993896484375,-86.9618320610687,-59.85496183206107,84.91603053435115,23.306470588235296
2024-10-31T04:06:29.207305,1,-1.054931640625,1.353515625,1.3017578125,-4.824427480916031,65.13740458015268,81.54961832061069,23.25941176470588
2024-10-31T04:06:29.223247,1,1.01556396484375,0.8388671875,-0.347900390625,57.19847328244275,106.5114503816794,1.0534351145038168,23.353529411764708
2024-10-31T04:06:29.239190,1,1.99993896484375,0.412841796875,-1.806640625,94.05343511450381,106.3206106870229,-57.786259541984734,23.25941176470588
2024-10-31T04:06:29.255132,1,1.99072265625,0.294189453125,-1.970458984375,68.56488549618321,-5.488549618320611,-98.7175572519084,23.353529411764708
2024-10-31T04:06:29.271074,1,1.281982421875,0.466552734375,-0.697998046875,-1.297709923664122,-98.10687022900764,-70.20610687022901,23.353529411764708
2024-10-31T04:06:29.287017,1,-0.796875,0.916015625,1.146240234375,-56.091603053435115,-121.93129770992367,-2.33587786259542,23.25941176470588
2024-10-31T04:06:29.302961,1,-2.0,1.24462890625,1.99993896484375,-96.83206106870229,-82.80916030534351,60.81679389312977,23.353529411764708
2024-10-31T04:06:29.318903,1,-1.9990234375,1.8828125,1.99993896484375,-55.83206106870229,21.557251908396946,106.93129770992367,23.306470588235296
2024-10-31T04:06:29.334853,1,-1.275390625,1.3935546875,1.40380859375,0.4351145038167939,91.66412213740458,48.030534351145036,23.21235294117647
2024-10-31T04:06:29.350814,1,1.12493896484375,0.86083984375,-0.324462890625,78.07633587786259,155.61832061068702,24.549618320610687,23.306470588235296
2024-10-31T04:06:29.366765,1,1.99993896484375,0.4765625,-1.678466796875,96.87022900763358,114.83206106870229,-113.21374045801527,23.21235294117647
2024-10-31T04:06:29.382708,1,1.984375,0.171875,-1.799072265625,66.40458015267176,20.35114503816794,-104.47328244274809,23.306470588235296
2024-10-31T04:06:29.398654,1,0.480224609375,0.630615234375,-0.112060546875,9.267175572519085,-82.04580152671755,-19.541984732824428,23.40058823529412
2024-10-31T04:06:29.414599,1,-1.984375,1.278076171875,1.99993896484375,-92.25954198473282,-151.13740458015266,44.70992366412214,23.306470588235296
2024-10-31T04:06:29.430545,1,-1.987060546875,1.99993896484375,1.99993896484375,-110.79389312977099,-92.16793893129771,99.35114503816794,23.306470588235296
2024-10-31T04:06:29.446489,1,-1.404052734375,1.42822265625,1.4990234375,-34.36641221374046,43.404580152671755,79.30534351145039,23.306470588235296
2024-10-31T04:06:29.462431,1,1.06243896484375,0.769775390625,-0.3349609375,60.2442748091603,141.76335877862596,3.8931297709923665,23.306470588235296
2024-10-31T04:06:29.478394,1,1.99993896484375,0.334228515625,-1.7861328125,98.80152671755725,122.52671755725191,-87.70229007633588,23.40058823529412
2024-10-31T04:06:29.494342,1,1.989990234375,0.098388671875,-1.777587890625,70.8854961832061,29.12213740458015,-106.25954198473282,23.306470588235296
2024-10-31T04:06:29.510286,1,0.65576171875,0.58447265625,-0.263916015625,11.465648854961833,-82.77862595419847,-56.045801526717554,23.353529411764708
2024-10-31T04:06:29.526229,1,-1.6875,1.001708984375,1.80810546875,-70.72519083969466,-137.74045801526717,19.580152671755727,23.353529411764708
2024-10-31T04:06:29.542172,1,-1.98828125,1.764404296875,1.99993896484375,-107.54198473282443,-114.92366412213741,93.51908396946565,23.25941176470588
2024-10-31T04:06:29.558115,1,-2.0,1.8232421875,1.99993896484375,-60.05343511450382,-11.885496183206106,97.12213740458016,23.25941176470588
2024-10-31T04:06:29.574054,1,0.0576171875,1.353271484375,0.40625,4.0,100.45801526717557,53.63358778625954,23.25941176470588
2024-10-31T04:06:29.589997,1,1.99993896484375,0.4970703125,-1.0927734375,81.20610687022901,148.13740458015266,-32.12977099236641,23.306470588235296
2024-10-31T04:06:29.605941,1,1.99993896484375,0.434814453125,-2.0,95.42748091603053,88.49618320610686,-94.63358778625954,23.306470588235296
2024-10-31T04:06:29.621884,1,1.8681640625,0.389892578125,-1.26953125,44.12213740458015,-34.3587786259542,-89.21374045801527,23.306470588235296
2024-10-31T04:06:29.637828,1,-0.77490234375,0.9375,0.8984375,-26.755725190839694,-114.41221374045801,-40.778625954198475,23.306470588235296
2024-10-31T04:06:29.653772,1,-2.0,1.4541015625,1.99993896484375,-92.57251908396947,-133.45801526717557,47.97709923664122,23.306470588235296
2024-10-31T04:06:29.669716,1,-2.0,1.807861328125,1.99993896484375,-82.57251908396947,-45.41984732824427,117.83206106870229,23.21235294117647
2024-10-31T04:06:29.685658,1,-0.361572265625,1.1982421875,0.73681640625,3.5419847328244276,87.76335877862596,74.38167938931298,23.306470588235296
2024-10-31T04:06:29.701603,1,1.843505859375,0.463623046875,-1.01416015625,79.25190839694656,153.0763358778626,-12.748091603053435,23.306470588235296
2024-10-31T04:06:29.717548,1,1.99993896484375,0.11181640625,-2.0,112.9618320610687,119.67175572519083,-103.04580152671755,23.306470588235296
2024-10-31T04:06:29.733492,1,1.724365234375,0.262939453125,-1.3564453125,73.52671755725191,7.00763358778626,-95.80916030534351,23.306470588235296
2024-10-31T04:06:29.749435,1,-0.406494140625,0.778076171875,0.977294921875,-1.0381679389312977,-90.98473282442748,-16.549618320610687,23.306470588235296
2024-10-31T04:06:29.765380,1,-2.0,1.462158203125,1.99993896484375,-83.26717557251908,-151.6412213740458,26.6793893129771,23.306470588235296
2024-10-31T04:06:29.781324,1,-2.0,1.89453125,1.99993896484375,-116.78625954198473,-100.61832061068702,100.38167938931298,23.25941176470588
2024-10-31T04:06:29.797279,1,-0.958251953125,1.853759765625,1.328369140625,-63.732824427480914,-8.419847328244275,88.0,23.25941176470588
2024-10-31T04:06:29.813224,1,0.842529296875,0.8837890625,-0.21875,13.221374045801527,101.04580152671755,49.52671755725191,23.25941176470588
2024-10-31T04:06:29.829182,1,1.99993896484375,0.57861328125,-1.635986328125,81.37404580152672,135.99236641221373,-25.358778625954198,23.25941176470588
2024-10-31T04:06:29.845144,1,1.99993896484375,0.2431640625,-1.90771484375,91.44274809160305,77.26717557251908,-94.94656488549619,23.353529411764708
2024-10-31T04:06:29.861095,1,1.15966796875,0.441650390625,-0.7509765625,41.82442748091603,-35.6793893129771,-92.78625954198473,23.353529411764708
2024-10-31T04:06:29.877047,1,-1.267333984375,1.052978515625,1.345458984375,-28.85496183206107,-117.41984732824427,-19.671755725190838,23.353529411764708
2024-10-31T04:06:29.892993,1,-2.0,1.68212890625,1.99993896484375,-94.33587786259542,-135.44274809160305,66.19847328244275,23.353529411764708
2024-10-31T04:06:29.908938,1,-2.0,1.668701171875,1.99993896484375,-84.41221374045801,-65.1526717557252,96.1145038167939,23.353529411764708
2024-10-31T04:06:29.924880,1,-0.001953125,1.238525390625,1.989990234375,-16.083969465648856,66.22137404580153,65.3206106870229,23.353529411764708
2024-10-31T04:06:29.940830,1,1.99993896484375,0.536865234375,0.4150390625,71.77099236641222,145.98473282442748,-9.465648854961833,23.25941176470588
2024-10-31T04:06:29.956775,1,1.99993896484375,0.06982421875,-1.211181640625,98.79389312977099,114.80916030534351,-100.51908396946565,23.353529411764708
2024-10-31T04:06:29.972721,1,1.704345703125,0.267578125,-1.990478515625,66.2442748091603,-5.114503816793893,-102.03053435114504,23.25941176470588
2024-10-31T04:06:29.988665,1,-0.6533203125,0.806396484375,-1.117431640625,-0.549618320610687,-102.10687022900764,-40.954198473282446,23.40058823529412
2024-10-31T04:06:30.004608,1,-2.0,1.39501953125,0.85931396484375,-82.97709923664122,-142.96946564885496,29.572519083969464,23.306470588235296
2024-10-31T04:06:30.020553,1,-2.0,1.94384765625,1.99993896484375,-95.3587786259542,-98.59541984732824,95.57251908396947,23.306470588235296
2024-10-31T04:06:30.036498,1,-1.0595703125,1.603759765625,1.9892578125,-59.6793893129771,5.458015267175573,91.7557251908397,23.306470588235296
2024-10-31T04:06:30.052446,1,1.16845703125,0.87353515625,1.32568359375,16.282442748091604,106.09923664122137,37.63358778625954,23.306470588235296
2024-10-31T04:06:30.068389,1,1.99993896484375,0.875,-0.51025390625,81.53435114503817,133.68702290076337,-46.81679389312977,23.40058823529412
2024-10-31T04:06:30.084348,1,1.99993896484375,0.377685546875,-1.763427734375,86.38167938931298,81.06870229007633,-110.37404580152672,23.306470588235296
2024-10-31T04:06:30.100311,1,0.6796875,0.266845703125,-1.79736328125,44.396946564885496,-40.63358778625954,-85.68702290076335,23.306470588235296
2024-10-31T04:06:30.116266,1,-1.804443359375,0.66162109375,-0.21435546875,-34.19083969465649,-123.98473282442748,-18.114503816793892,23.306470588235296
2024-10-31T04:06:30.132218,1,-2.0,1.2294921875,1.93743896484375,-104.45801526717557,-136.41221374045801,56.57251908396947,23.165294117647058
2024-10-31T04:06:30.148162,1,-1.873046875,1.982666015625,1.98828125,-85.96946564885496,-49.48091603053435,103.89312977099236,23.25941176470588
2024-10-31T04:06:30.164105,1,0.2900390625,1.500244140625,1.935791015625,-8.0,70.30534351145039,66.81679389312977,23.25941176470588
2024-10-31T04:06:30.180049,1,1.99993896484375,0.944580078125,0.176025390625,67.62595419847328,142.22137404580153,-2.3969465648854964,23.353529411764708
2024-10-31T04:06:30.195993,1,1.99993896484375,0.455078125,-1.451171875,100.42748091603053,116.16793893129771,-92.10687022900764,23.25941176470588
2024-10-31T04:06:30.211952,1,1.479248046875,0.2265625,-1.989013671875,65.67175572519083,5.435114503816794,-105.27480916030534,23.25941176470588
2024-10-31T04:06:30.227910,1,-1.044677734375,0.465087890625,-0.86865234375,5.00763358778626,-93.96946564885496,-42.16030534351145,23.25941176470588
2024-10-31T04:06:30.243854,1,-2.0,0.915283203125,1.23431396484375,-78.54961832061069,-136.84732824427482,25.702290076335878,23.25941176470588
2024-10-31T04:06:30.259798,1,-2.0,1.54681396484375,1.99993896484375,-110.37404580152672,-103.7175572519084,93.59541984732824,23.306470588235296
2024-10-31T04:06:30.275747,1,-1.99755859375,1.8173828125,1.984619140625,-55.2442748091603,5.641221374045801,96.90839694656489,23.306470588235296
2024-10-31T04:06:30.291691,1,-0.486083984375,1.468994140625,0.959228515625,34.81679389312977,127.61068702290076,50.50381679389313,23.40058823529412
2024-10-31T04:06:30.307635,1,1.76556396484375,0.659423828125,-0.757080078125,86.38931297709924,147.24427480916032,-56.48854961832061,23.306470588235296
2024-10-31T04:06:30.323580,1,1.99993896484375,0.298095703125,-1.972900390625,92.90839694656489,75.43511450381679,-110.61068702290076,23.306470588235296
2024-10-31T04:06:30.339538,1,1.940185546875,0.317138671875,-1.3544921875,41.343511450381676,-53.61068702290076,-77.65648854961832,23.306470588235296
2024-10-31T04:06:30.355493,1,-0.5,0.912353515625,0.740234375,-49.595419847328245,-139.46564885496184,9.954198473282442,23.306470588235296
2024-10-31T04:06:30.371454,1,-2.0,1.57177734375,1.99993896484375,-108.38167938931298,-120.89312977099236,89.69465648854961,23.40058823529412
2024-10-31T04:06:30.387400,1,-1.998291015625,1.966552734375,1.99993896484375,-58.54961832061068,-2.7709923664122136,92.41221374045801,23.306470588235296
2024-10-31T04:06:30.403344,1,-0.424560546875,1.167724609375,0.737548828125,30.51145038167939,110.97709923664122,46.099236641221374,23.25941176470588
2024-10-31T04:06:30.419291,1,1.98431396484375,0.541748046875,-1.074951171875,90.47328244274809,142.45038167938932,-47.42748091603053,23.25941176470588
2024-10-31T04:06:30.435233,1,1.984375,0.182861328125,-1.99169921875,85.6412213740458,72.98473282442748,-110.2442748091603,23.353529411764708
2024-10-31T04:06:30.451182,1,1.909912109375,0.283203125,-1.310546875,42.56488549618321,-47.79389312977099,-76.83206106870229,23.353529411764708
2024-10-31T04:06:30.467126,1,-0.40625,0.760498046875,0.650634765625,-36.69465648854962,-125.3587786259542,-10.419847328244275,23.353529411764708
2024-10-31T04:06:30.483074,1,-2.0,1.33642578125,1.99993896484375,-102.35114503816794,-131.61832061068702,64.18320610687023,23.25941176470588
2024-10-31T04:06:30.499016,1,-1.9873046875,1.85009765625,1.99993896484375,-78.29007633587786,-46.396946564885496,100.38167938931298,23.353529411764708
2024-10-31T04:06:30.514965,1,-1.155029296875,1.6328125,1.3828125,-14.17557251908397,70.19083969465649,69.77862595419847,23.353529411764708
2024-10-31T04:06:30.530909,1,1.14056396484375,0.543701171875,-0.532958984375,60.66412213740458,141.57251908396947,-1.4045801526717556,23.306470588235296
2024-10-31T04:06:30.546852,1,1.99993896484375,0.427978515625,-1.639892578125,101.90839694656489,143.61832061068702,-70.37404580152672,23.306470588235296
2024-10-31T04:06:30.562796,1,1.986572265625,0.478271484375,-1.870849609375,74.1145038167939,17.900763358778626,-108.6030534351145,23.40058823529412
2024-10-31T04:06:30.578741,1,0.573974609375,0.673828125,-0.18408203125,10.83206106870229,-98.81679389312977,-38.18320610687023,23.306470588235296
2024-10-31T04:06:30.594689,1,-1.890625,1.22216796875,1.99993896484375,-84.44274809160305,-148.23664122137404,33.70992366412214,23.306470588235296
2024-10-31T04:06:30.610634,1,-1.990234375,1.86669921875,1.99993896484375,-98.54961832061069,-105.21374045801527,101.09923664122137,23.306470588235296
2024-10-31T04:06:30.626580,1,-1.59765625,1.522216796875,1.646728515625,-31.34351145038168,29.213740458015266,89.50381679389314,23.306470588235296
2024-10-31T04:06:30.642533,1,0.95306396484375,0.741943359375,-0.330810546875,53.19847328244275,119.87022900763358,14.725190839694656,23.353529411764708
2024-10-31T04:06:30.658479,1,1.99993896484375,0.2470703125,-1.7626953125,96.0,129.66412213740458,-69.12213740458016,23.25941176470588
2024-10-31T04:06:30.674421,1,1.9853515625,0.10498046875,-1.794189453125,70.2442748091603,42.48091603053435,-110.12977099236642,23.353529411764708
2024-10-31T04:06:30.690365,1,0.626708984375,0.457275390625,-0.322021484375,12.0,-70.93893129770993,-52.152671755725194,23.353529411764708
2024-10-31T04:06:30.706307,1,-1.6240234375,1.043212890625,1.878173828125,-67.01526717557252,-140.0763358778626,24.99236641221374,23.306470588235296
2024-10-31T04:06:30.722252,1,-2.0,1.930419921875,1.99993896484375,-111.91603053435115,-112.32824427480917,93.93893129770993,23.306470588235296
2024-10-31T04:06:30.738198,1,-2.0,1.8681640625,1.99993896484375,-60.79389312977099,-2.435114503816794,96.98473282442748,23.306470588235296
2024-10-31T04:06:30.754142,1,-0.074951171875,1.272705078125,0.532958984375,7.862595419847328,101.83969465648855,63.80916030534351,23.306470588235296
2024-10-31T04:06:30.770086,1,1.99993896484375,0.562744140625,-1.102783203125,76.16030534351145,145.81679389312978,-18.702290076335878,23.306470588235296
2024-10-31T04:06:30.786029,1,1.99993896484375,0.263916015625,-2.0,95.89312977099236,110.27480916030534,-96.38931297709924,23.306470588235296
2024-10-31T04:06:30.801972,1,1.8828125,0.351806640625,-1.233642578125,60.25190839694657,-9.786259541984732,-100.6412213740458,23.21235294117647
2024-10-31T04:06:30.817917,1,-0.6552734375,0.8828125,0.820556640625,-7.8320610687022905,-113.38167938931298,-29.610687022900763,23.306470588235296
2024-10-31T04:06:30.833885,1,-2.0,1.506103515625,1.99993896484375,-87.12213740458016,-142.3587786259542,56.29770992366412,23.40058823529412
2024-10-31T04:06:30.849856,1,-2.0,1.903564453125,1.99993896484375,-94.97709923664122,-70.04580152671755,98.20610687022901,23.21235294117647
2024-10-31T04:06:30.865806,1,-0.3759765625,1.261962890625,0.763916015625,-16.16030534351145,71.67175572519083,68.80152671755725,23.40058823529412
2024-10-31T04:06:30.881757,1,1.99993896484375,0.625,-1.033447265625,74.74809160305344,149.63358778625954,-14.633587786259541,23.306470588235296
2024-10-31T04:06:30.897707,1,1.99993896484375,0.101318359375,-1.998046875,100.56488549618321,102.06870229007633,-103.14503816793894,23.306470588235296
2024-10-31T04:06:30.913652,1,1.869140625,0.28076171875,-1.159912109375,54.94656488549618,-17.96946564885496,-94.72519083969466,23.306470588235296
2024-10-31T04:06:30.929595,1,-0.635986328125,0.7919921875,0.861083984375,-11.564885496183207,-108.12977099236642,-29.53435114503817,23.306470588235296
2024-10-31T04:06:30.945540,1,-2.0,1.566650390625,1.99993896484375,-88.47328244274809,-134.6030534351145,41.58015267175573,23.306470588235296
2024-10-31T04:06:30.961483,1,-2.0,1.99993896484375,1.99993896484375,-102.50381679389314,-76.95419847328245,99.91603053435115,23.353529411764708
2024-10-31T04:06:30.977427,1,-0.813232421875,1.544677734375,1.15380859375,-40.74045801526717,45.396946564885496,86.22900763358778,23.25941176470588
2024-10-31T04:06:30.993371,1,1.373291015625,0.74853515625,-0.54638671875,47.10687022900763,132.12213740458014,23.427480916030536,23.353529411764708
2024-10-31T04:06:31.009316,1,1.99993896484375,0.361083984375,-1.84521484375,97.0381679389313,137.8091603053435,-69.42748091603053,23.353529411764708
2024-10-31T04:06:31.025273,1,1.99993896484375,0.24560546875,-1.97216796875,72.8473282442748,42.732824427480914,-111.6793893129771,23.353529411764708
2024-10-31T04:06:31.041220,1,0.010498046875,0.58984375,-1.508056640625,7.824427480916031,-77.29770992366412,-60.57251908396947,23.353529411764708
