timestamp,acc_x,acc_y,acc_z,gyro_x,gyro_y,gyro_z,temp
2024-10-31T03:09:15.536078,0.0,0.0,0.0,0.0,0.0,0.0,39.54176470588236
2024-10-31T03:09:15.647389,0.252197265625,-0.804931640625,0.5439453125,1.3511450381679388,-0.5954198473282443,0.8320610687022901,21.141764705882352
2024-10-31T03:09:15.753607,0.235595703125,-0.822265625,0.556396484375,0.46564885496183206,-1.0610687022900764,-0.2595419847328244,21.235882352941175
2024-10-31T03:09:15.859635,0.244384765625,-0.8203125,0.54541015625,0.4961832061068702,-1.0687022900763359,-0.4732824427480916,21.141764705882352
2024-10-31T03:09:15.965563,0.2421875,-0.8017578125,0.53857421875,1.5419847328244274,-0.37404580152671757,0.07633587786259542,21.235882352941175
2024-10-31T03:09:16.071462,0.24853515625,-0.813720703125,0.53564453125,1.0,-0.732824427480916,-0.21374045801526717,21.235882352941175
2024-10-31T03:09:16.177369,0.24951171875,-0.8271484375,0.548095703125,0.26717557251908397,-0.8625954198473282,-0.8625954198473282,21.424117647058825
2024-10-31T03:09:16.283280,0.237060546875,-0.80419921875,0.545166015625,1.0305343511450382,-0.6183206106870229,-0.9541984732824428,21.235882352941175
2024-10-31T03:09:16.389176,0.2470703125,-0.798828125,0.543701171875,1.3969465648854962,-0.40458015267175573,-0.24427480916030533,21.377058823529413
2024-10-31T03:09:16.495064,0.23828125,-0.81884765625,0.55517578125,0.6030534351145038,-0.5801526717557252,-0.6259541984732825,22.03588235294118
2024-10-31T03:09:16.600952,0.244140625,-0.823974609375,0.539794921875,0.6946564885496184,-0.9618320610687023,-0.8396946564885496,21.28294117647059
2024-10-31T03:09:16.706843,0.24755859375,-0.805908203125,0.54150390625,1.5572519083969465,-0.5725190839694656,0.0,21.28294117647059
2024-10-31T03:09:16.812731,0.24609375,-0.806640625,0.5419921875,1.3129770992366412,-0.5648854961832062,0.2748091603053435,21.377058823529413
2024-10-31T03:09:16.918621,0.23828125,-0.826904296875,0.554443359375,0.5801526717557252,-0.916030534351145,-0.09923664122137404,21.377058823529413
2024-10-31T03:09:17.024506,0.24365234375,-0.811279296875,0.550537109375,1.1450381679389312,-0.9465648854961832,0.07633587786259542,21.377058823529413
2024-10-31T03:09:17.130402,0.244873046875,-0.80224609375,0.546875,1.534351145038168,-0.8244274809160306,0.5343511450381679,21.377058823529413
2024-10-31T03:09:17.236292,0.2421875,-0.810302734375,0.536865234375,0.9312977099236641,-0.8396946564885496,0.16030534351145037,20.718235294117648
2024-10-31T03:09:17.342181,0.246826171875,-0.81787109375,0.547119140625,0.8549618320610687,-0.8854961832061069,0.2824427480916031,21.424117647058825
2024-10-31T03:09:17.448069,0.2490234375,-0.807861328125,0.54541015625,1.213740458015267,-0.9083969465648855,0.2366412213740458,21.424117647058825
2024-10-31T03:09:17.553958,0.24560546875,-0.805419921875,0.5390625,1.1221374045801527,-0.6259541984732825,0.2900763358778626,22.177058823529414
2024-10-31T03:09:17.659859,0.248046875,-0.82421875,0.547119140625,0.6564885496183206,-0.6717557251908397,-0.19083969465648856,21.51823529411765
2024-10-31T03:09:17.765751,0.24658203125,-0.813232421875,0.546875,0.8549618320610687,-0.8931297709923665,-0.2824427480916031,22.177058823529414
2024-10-31T03:09:17.871638,0.241943359375,-0.805908203125,0.541748046875,1.1526717557251909,-0.7404580152671756,-0.33587786259541985,22.177058823529414
2024-10-31T03:09:17.977526,0.248291015625,-0.81689453125,0.540771484375,0.9007633587786259,-0.7404580152671756,-0.3893129770992366,20.76529411764706
2024-10-31T03:09:18.083465,0.247314453125,-0.827880859375,0.5498046875,0.648854961832061,-0.8015267175572519,-0.6717557251908397,21.56529411764706
2024-10-31T03:09:18.189425,0.24658203125,-0.812255859375,0.534912109375,1.1068702290076335,-0.8702290076335878,-0.648854961832061,22.177058823529414
2024-10-31T03:09:18.295386,0.242431640625,-0.80126953125,0.532958984375,1.381679389312977,-0.48854961832061067,-0.6717557251908397,21.56529411764706
2024-10-31T03:09:18.401334,0.2626953125,-0.81640625,0.540283203125,0.8473282442748091,-0.48854961832061067,-0.8244274809160306,21.471176470588237
2024-10-31T03:09:18.507290,0.24609375,-0.825439453125,0.56201171875,0.6870229007633588,-0.7786259541984732,-0.5343511450381679,21.61235294117647
2024-10-31T03:09:18.613257,0.23779296875,-0.79931640625,0.548095703125,1.2671755725190839,-0.6946564885496184,-0.5572519083969466,22.130000000000003
2024-10-31T03:09:18.719209,0.242431640625,-0.79931640625,0.533203125,1.282442748091603,-0.12213740458015267,-0.09923664122137404,22.130000000000003
2024-10-31T03:09:18.825164,0.248291015625,-0.817138671875,0.56201171875,0.7633587786259542,-0.648854961832061,0.1984732824427481,21.51823529411765
2024-10-31T03:09:18.931128,0.239501953125,-0.81689453125,0.53564453125,0.6946564885496184,-1.3206106870229009,-0.1297709923664122,21.471176470588237
2024-10-31T03:09:19.037077,0.2392578125,-0.79736328125,0.545166015625,1.5572519083969465,-0.6870229007633588,0.13740458015267176,21.56529411764706
2024-10-31T03:09:19.143050,0.24658203125,-0.80615234375,0.54248046875,1.2061068702290076,-0.5267175572519084,0.366412213740458,21.51823529411765
2024-10-31T03:09:19.249003,0.25,-0.828369140625,0.545654296875,0.4198473282442748,-0.9923664122137404,0.2824427480916031,21.51823529411765
2024-10-31T03:09:19.354954,0.236328125,-0.805908203125,0.544921875,1.1221374045801527,-1.083969465648855,0.06870229007633588,21.51823529411765
2024-10-31T03:09:19.460906,0.244384765625,-0.79931640625,0.5322265625,1.4732824427480915,-0.48854961832061067,0.42748091603053434,21.659411764705883
2024-10-31T03:09:19.566864,0.262939453125,-0.82666015625,0.546142578125,0.6793893129770993,-0.7175572519083969,0.25190839694656486,21.61235294117647
2024-10-31T03:09:19.672917,0.3974609375,-0.672119140625,0.36083984375,-27.412213740458014,1.8931297709923665,-56.44274809160305,21.56529411764706
2024-10-31T03:09:19.778929,0.2001953125,-0.90771484375,0.59228515625,-47.43511450381679,-25.114503816793892,-69.96946564885496,21.61235294117647
2024-10-31T03:09:19.884879,-0.373046875,-2.0,1.26556396484375,-102.96946564885496,-53.58015267175573,-174.9083969465649,21.56529411764706
2024-10-31T03:09:19.990846,0.12158203125,-1.087646484375,0.385009765625,-70.8854961832061,-6.687022900763359,-145.33587786259542,21.61235294117647
2024-10-31T03:09:20.096812,0.1142578125,-0.005126953125,0.28662109375,-34.51145038167939,158.41221374045801,2.83206106870229,21.61235294117647
2024-10-31T03:09:20.202774,0.244873046875,-0.662353515625,0.4501953125,44.10687022900763,-42.847328244274806,37.099236641221374,21.659411764705883
2024-10-31T03:09:20.308749,0.607666015625,-0.697265625,-0.037353515625,190.32824427480915,81.3969465648855,250.12977099236642,21.706470588235295
2024-10-31T03:09:20.414714,-1.6005859375,-2.0,1.927001953125,-132.8320610687023,48.908396946564885,-235.24427480916032,21.56529411764706
2024-10-31T03:09:20.520676,0.359375,-0.546875,0.531982421875,-5.190839694656488,-45.70992366412214,-4.450381679389313,21.51823529411765
2024-10-31T03:09:20.626640,0.373779296875,-0.49853515625,0.3193359375,50.396946564885496,6.862595419847328,-93.8854961832061,21.659411764705883
2024-10-31T03:09:20.732621,0.2197265625,-0.84765625,0.572509765625,53.35114503816794,-34.36641221374046,57.786259541984734,21.56529411764706
2024-10-31T03:09:20.838578,0.354736328125,-1.24169921875,0.344970703125,-43.74045801526717,-85.79389312977099,-111.94656488549619,21.706470588235295
2024-10-31T03:09:20.944528,0.371826171875,-0.00830078125,0.546142578125,-7.511450381679389,63.7557251908397,36.74045801526717,21.659411764705883
2024-10-31T03:09:21.050491,0.25732421875,-0.83837890625,0.48583984375,51.48091603053435,-30.396946564885496,69.95419847328245,21.659411764705883
2024-10-31T03:09:21.156463,0.5771484375,-0.878173828125,-0.8369140625,217.10687022900763,117.61832061068702,250.12977099236642,21.706470588235295
2024-10-31T03:09:21.262438,-1.832275390625,-2.0,1.289794921875,-61.64885496183206,-12.312977099236642,-152.41221374045801,21.753529411764706
2024-10-31T03:09:21.368408,0.629150390625,-1.4365234375,1.11083984375,146.6412213740458,-76.42748091603053,139.44274809160305,21.61235294117647
2024-10-31T03:09:21.474385,0.554443359375,0.510986328125,0.22314453125,-64.95419847328245,148.0763358778626,50.786259541984734,21.706470588235295
2024-10-31T03:09:21.580427,0.322509765625,-0.5615234375,0.590576171875,57.06106870229008,-68.82442748091603,28.427480916030536,21.706470588235295
2024-10-31T03:09:21.686399,0.663330078125,-0.7822265625,0.42529296875,139.1908396946565,132.38167938931298,250.12977099236642,21.56529411764706
2024-10-31T03:09:21.792365,0.2236328125,-0.98876953125,0.641357421875,22.786259541984734,-49.25954198473283,12.106870229007633,21.706470588235295
2024-10-31T03:09:21.898343,0.389404296875,-1.287109375,0.416015625,-35.587786259541986,-77.70992366412214,-80.6793893129771,21.706470588235295
2024-10-31T03:09:22.004324,-0.023681640625,-0.015380859375,-0.010009765625,-88.12977099236642,147.13740458015266,61.83206106870229,21.659411764705883
2024-10-31T03:09:22.110297,0.31884765625,-0.76904296875,0.515869140625,89.2442748091603,-47.85496183206107,104.25954198473282,21.706470588235295
2024-10-31T03:09:22.216286,0.71875,-1.17333984375,0.411376953125,9.511450381679388,5.969465648854962,4.67175572519084,21.659411764705883
2024-10-31T03:09:22.322257,0.1708984375,-0.96337890625,0.275146484375,-44.969465648854964,-6.33587786259542,-84.03053435114504,21.61235294117647
2024-10-31T03:09:22.428239,0.262451171875,-0.603515625,0.216552734375,-55.847328244274806,-23.709923664122137,-85.8473282442748,21.80058823529412
2024-10-31T03:09:22.534231,0.54248046875,-0.05859375,0.509765625,88.96946564885496,99.32824427480917,115.83206106870229,21.659411764705883
2024-10-31T03:09:22.640213,0.32080078125,-0.922607421875,0.697998046875,47.732824427480914,-86.76335877862596,51.93893129770992,21.706470588235295
2024-10-31T03:09:22.746193,0.424072265625,-0.6435546875,0.455810546875,2.3435114503816794,0.4961832061068702,12.458015267175572,21.56529411764706
2024-10-31T03:09:22.852183,0.263427734375,-0.772216796875,0.522216796875,3.7022900763358777,2.0229007633587788,1.984732824427481,21.706470588235295
2024-10-31T03:09:22.958164,0.264404296875,-0.79833984375,0.52001953125,3.732824427480916,0.6030534351145038,4.480916030534351,21.659411764705883
2024-10-31T03:09:23.064547,0.259765625,-0.813720703125,0.50390625,0.3282442748091603,0.3282442748091603,-1.1603053435114503,21.706470588235295
2024-10-31T03:09:23.170568,0.27001953125,-0.80322265625,0.528076171875,1.5877862595419847,-0.022900763358778626,2.717557251908397,21.706470588235295
2024-10-31T03:09:23.276537,0.25048828125,-0.8017578125,0.531982421875,1.5190839694656488,-1.5190839694656488,-1.3511450381679388,21.847647058823533
2024-10-31T03:09:23.382495,0.26171875,-0.834228515625,0.538818359375,-0.22137404580152673,-1.6564885496183206,-1.900763358778626,21.847647058823533
2024-10-31T03:09:23.488440,0.25927734375,-0.80126953125,0.522705078125,0.7404580152671756,-0.48854961832061067,0.1984732824427481,21.706470588235295
2024-10-31T03:09:23.594395,0.269775390625,-0.802734375,0.518798828125,2.435114503816794,-1.9312977099236641,2.145038167938931,21.659411764705883
2024-10-31T03:09:23.700347,0.270751953125,-0.856689453125,0.553466796875,0.4732824427480916,-1.2900763358778626,-0.06870229007633588,21.753529411764706
2024-10-31T03:09:23.806297,0.263427734375,-0.84716796875,0.51611328125,-0.4961832061068702,-1.6564885496183206,-1.8778625954198473,21.706470588235295
2024-10-31T03:09:23.912246,0.256591796875,-0.782958984375,0.515380859375,1.9770992366412214,0.366412213740458,0.549618320610687,21.753529411764706
2024-10-31T03:09:24.018207,0.2685546875,-0.7978515625,0.5166015625,0.26717557251908397,-1.8931297709923665,1.3969465648854962,21.659411764705883
2024-10-31T03:09:24.124174,0.263427734375,-0.851806640625,0.553466796875,-0.45038167938931295,-3.8244274809160306,-3.885496183206107,21.706470588235295
2024-10-31T03:09:24.230135,0.25244140625,-0.8115234375,0.52734375,0.05343511450381679,-0.7633587786259542,-1.9541984732824427,21.753529411764706
2024-10-31T03:09:24.336083,0.255126953125,-0.778076171875,0.5126953125,2.648854961832061,0.6946564885496184,1.3053435114503817,21.706470588235295
2024-10-31T03:09:24.442041,0.25927734375,-0.833740234375,0.5390625,1.1068702290076335,-0.8396946564885496,-0.22900763358778625,21.80058823529412
2024-10-31T03:09:24.547987,0.249267578125,-0.8564453125,0.546875,-0.8625954198473282,-1.9465648854961832,-2.519083969465649,21.659411764705883
2024-10-31T03:09:24.653933,0.25537109375,-0.774169921875,0.52978515625,3.7022900763358777,1.900763358778626,-0.8091603053435115,21.706470588235295
2024-10-31T03:09:24.759889,0.2744140625,-0.79296875,0.527099609375,2.66412213740458,0.5648854961832062,1.3435114503816794,21.753529411764706
2024-10-31T03:09:24.865840,0.269775390625,-0.8642578125,0.557861328125,-0.4122137404580153,-3.572519083969466,-0.8396946564885496,21.847647058823533
2024-10-31T03:09:24.971783,0.247314453125,-0.843017578125,0.522705078125,1.9389312977099236,-1.8549618320610688,-1.6412213740458015,21.706470588235295
2024-10-31T03:09:25.077749,0.25244140625,-0.7705078125,0.50732421875,3.183206106870229,0.6106870229007634,1.2061068702290076,21.753529411764706
2024-10-31T03:09:25.183719,0.27734375,-0.813232421875,0.53076171875,1.6793893129770991,-0.17557251908396945,1.6946564885496183,21.706470588235295
2024-10-31T03:09:25.289682,0.26123046875,-0.865478515625,0.5625,-1.1603053435114503,-2.5572519083969465,-1.549618320610687,21.80058823529412
2024-10-31T03:09:25.395649,0.2431640625,-0.7802734375,0.522705078125,3.404580152671756,-0.7099236641221374,1.4351145038167938,21.80058823529412
2024-10-31T03:09:25.501628,0.27001953125,-0.77587890625,0.49853515625,3.0916030534351147,0.7480916030534351,2.3587786259541983,21.753529411764706
2024-10-31T03:09:25.607596,0.27685546875,-0.854248046875,0.55859375,-0.06870229007633588,-1.1297709923664123,-1.1526717557251909,21.753529411764706
2024-10-31T03:09:25.713553,0.246337890625,-0.813720703125,0.537109375,-0.732824427480916,-2.3893129770992365,-1.549618320610687,21.80058823529412
2024-10-31T03:09:25.819520,0.239013671875,-0.7578125,0.51220703125,2.519083969465649,0.030534351145038167,0.6106870229007634,21.847647058823533
2024-10-31T03:09:25.925496,0.26953125,-0.798828125,0.542236328125,1.816793893129771,-1.6030534351145038,0.03816793893129771,21.80058823529412
2024-10-31T03:09:26.031466,0.267822265625,-0.86279296875,0.558349609375,-1.297709923664122,-2.282442748091603,-1.4885496183206106,21.753529411764706
2024-10-31T03:09:26.137441,0.242431640625,-0.80078125,0.5205078125,0.7251908396946565,-0.9770992366412213,-1.748091603053435,21.706470588235295
2024-10-31T03:09:26.243410,0.255126953125,-0.77197265625,0.515380859375,3.015267175572519,0.8778625954198473,1.6870229007633588,21.753529411764706
2024-10-31T03:09:26.349393,0.275390625,-0.854736328125,0.547607421875,-1.7404580152671756,-1.3053435114503817,-0.8091603053435115,21.80058823529412
2024-10-31T03:09:26.455353,0.236572265625,-0.853759765625,0.548583984375,-1.0381679389312977,-1.8015267175572518,-2.83206106870229,21.847647058823533
2024-10-31T03:09:26.561303,0.262451171875,-0.7705078125,0.509521484375,2.2595419847328246,0.4351145038167939,0.48854961832061067,21.80058823529412
2024-10-31T03:09:26.667281,0.268798828125,-0.820556640625,0.525390625,0.3511450381679389,-1.633587786259542,1.1526717557251909,21.847647058823533
2024-10-31T03:09:26.773251,0.260986328125,-0.86083984375,0.557373046875,-0.9618320610687023,-3.8931297709923665,-3.8473282442748094,21.894705882352945
2024-10-31T03:09:26.879213,0.241943359375,-0.822265625,0.534423828125,0.2824427480916031,-1.4198473282442747,-0.08396946564885496,21.847647058823533
2024-10-31T03:09:26.985180,0.25244140625,-0.77294921875,0.50244140625,3.122137404580153,0.9465648854961832,1.3129770992366412,21.894705882352945
2024-10-31T03:09:27.091155,0.266845703125,-0.839599609375,0.543212890625,0.9312977099236641,-0.6259541984732825,-1.8702290076335877,21.847647058823533
2024-10-31T03:09:27.197148,0.26416015625,-0.8583984375,0.5537109375,-1.1297709923664123,-2.33587786259542,-2.236641221374046,21.80058823529412
2024-10-31T03:09:27.303138,0.26416015625,-0.75439453125,0.50732421875,2.2595419847328246,0.015267175572519083,0.22137404580152673,21.847647058823533
2024-10-31T03:09:27.409175,0.2607421875,-0.801513671875,0.522216796875,2.7251908396946565,0.5190839694656488,2.6030534351145036,21.847647058823533
2024-10-31T03:09:27.515157,0.271728515625,-0.856201171875,0.54931640625,-0.6870229007633588,-2.1374045801526718,-0.5114503816793893,21.80058823529412
2024-10-31T03:09:27.621146,0.246826171875,-0.833984375,0.548095703125,1.6030534351145038,-1.8396946564885497,-1.4198473282442747,21.847647058823533
2024-10-31T03:09:27.727111,0.248291015625,-0.763671875,0.50830078125,3.198473282442748,0.7709923664122137,3.5801526717557253,21.894705882352945
2024-10-31T03:09:27.833070,0.265869140625,-0.820068359375,0.531005859375,1.6488549618320612,-0.183206106870229,1.7938931297709924,21.847647058823533
2024-10-31T03:09:27.939041,0.255859375,-0.865234375,0.551025390625,-1.3740458015267176,-2.33587786259542,-1.6793893129770991,21.894705882352945
2024-10-31T03:09:28.045006,0.260986328125,-0.76611328125,0.508544921875,3.66412213740458,1.534351145038168,1.6488549618320612,21.847647058823533
2024-10-31T03:09:28.150986,0.273193359375,-0.79638671875,0.503173828125,3.0839694656488548,0.7938931297709924,2.0916030534351147,21.80058823529412
2024-10-31T03:09:28.256951,0.277587890625,-0.863525390625,0.55712890625,-0.2900763358778626,-1.1984732824427482,-0.04580152671755725,21.753529411764706
2024-10-31T03:09:28.362920,0.2470703125,-0.849365234375,0.52392578125,-0.7251908396946565,-0.2595419847328244,-0.15267175572519084,21.706470588235295
2024-10-31T03:09:28.468886,0.25244140625,-0.7626953125,0.50927734375,2.8473282442748094,0.648854961832061,0.8473282442748091,21.80058823529412
2024-10-31T03:09:28.574834,0.274658203125,-0.806884765625,0.5166015625,1.8473282442748091,-1.900763358778626,1.3053435114503817,21.80058823529412
2024-10-31T03:09:28.680782,0.58251953125,0.4619140625,0.24853515625,-151.51908396946564,130.5648854961832,-65.0381679389313,21.847647058823533
2024-10-31T03:09:28.786735,0.44873046875,-2.0,0.67431640625,-15.992366412213741,-94.07633587786259,52.00763358778626,21.894705882352945
2024-10-31T03:09:28.892678,0.706298828125,0.268310546875,1.038818359375,-176.74809160305344,-10.229007633587786,34.412213740458014,21.847647058823533
2024-10-31T03:09:28.998648,0.28857421875,-0.696533203125,0.584228515625,-67.30534351145039,-26.49618320610687,-113.61832061068702,21.894705882352945
2024-10-31T03:09:29.104613,0.253662109375,-0.206298828125,0.22509765625,76.34351145038168,103.64885496183206,87.29007633587786,21.847647058823533
2024-10-31T03:09:29.210736,0.239013671875,-0.714599609375,0.52294921875,37.87786259541985,-13.648854961832061,57.267175572519086,21.894705882352945
2024-10-31T03:09:29.316679,0.615966796875,-0.99658203125,0.437744140625,61.778625954198475,1.282442748091603,93.87786259541984,21.894705882352945
2024-10-31T03:09:29.422636,0.194091796875,-0.898193359375,0.545166015625,24.900763358778626,-9.916030534351146,21.900763358778626,21.847647058823533
2024-10-31T03:09:29.528607,0.309814453125,-0.958251953125,0.614990234375,-26.022900763358777,-21.6793893129771,-36.97709923664122,21.847647058823533
2024-10-31T03:09:29.634574,0.60302734375,0.24755859375,0.563232421875,154.34351145038167,17.15267175572519,250.12977099236642,21.80058823529412
2024-10-31T03:09:29.740546,0.190185546875,-0.468994140625,0.44775390625,36.3587786259542,-60.778625954198475,19.862595419847327,21.847647058823533
2024-10-31T03:09:29.846520,0.560302734375,-0.827880859375,0.318359375,115.80152671755725,96.06106870229007,213.66412213740458,21.80058823529412
2024-10-31T03:09:29.952484,0.238037109375,-0.864501953125,0.615478515625,33.221374045801525,-8.305343511450381,53.01526717557252,21.753529411764706
2024-10-31T03:09:30.058454,0.561279296875,-0.821533203125,0.653076171875,80.56488549618321,-6.641221374045801,136.48091603053436,21.80058823529412
2024-10-31T03:09:30.164427,0.1806640625,-0.861083984375,0.52880859375,24.66412213740458,4.4961832061068705,35.49618320610687,21.894705882352945
2024-10-31T03:09:30.270392,0.212890625,-0.96533203125,0.6240234375,-38.00763358778626,-30.129770992366414,-59.0,21.894705882352945
2024-10-31T03:09:30.376392,0.1572265625,-0.08251953125,0.358642578125,-10.01526717557252,48.847328244274806,6.5038167938931295,21.847647058823533
2024-10-31T03:09:30.482398,0.175048828125,-0.6943359375,0.5478515625,44.70992366412214,-38.45038167938932,68.79389312977099,21.706470588235295
2024-10-31T03:09:30.588394,0.3154296875,-0.805419921875,0.5146484375,204.05343511450383,52.587786259541986,237.05343511450383,21.847647058823533
2024-10-31T03:09:30.694395,0.174072265625,-2.0,0.239501953125,-39.038167938931295,60.595419847328245,-250.13740458015266,21.941764705882356
2024-10-31T03:09:30.800380,0.220947265625,-0.80712890625,0.45556640625,-68.2824427480916,-33.038167938931295,-106.6412213740458,21.80058823529412
2024-10-31T03:09:30.906358,0.41845703125,-0.606201171875,0.453857421875,-138.29770992366412,14.648854961832061,-106.93893129770993,21.80058823529412
2024-10-31T03:09:31.012329,0.277099609375,-0.560302734375,0.52685546875,16.267175572519083,-36.099236641221374,3.213740458015267,21.894705882352945
2024-10-31T03:09:31.118300,0.2255859375,-0.526123046875,0.2998046875,50.0,54.786259541984734,-47.64885496183206,21.941764705882356
2024-10-31T03:09:31.224301,0.18505859375,-0.918212890625,0.616943359375,52.030534351145036,-18.946564885496183,57.030534351145036,21.894705882352945
2024-10-31T03:09:31.330276,0.821044921875,-1.277099609375,0.786865234375,33.3587786259542,-89.02290076335878,94.64885496183206,21.847647058823533
2024-10-31T03:09:31.436316,0.230712890625,-0.64013671875,0.27099609375,-158.65648854961833,-34.19847328244275,-250.13740458015266,21.847647058823533
2024-10-31T03:09:31.542286,0.30517578125,-0.5751953125,0.507080078125,-6.3816793893129775,-39.49618320610687,-24.236641221374047,21.988823529411768
2024-10-31T03:09:31.648253,0.272216796875,0.124755859375,0.5087890625,-20.091603053435115,46.48091603053435,59.87786259541985,21.894705882352945
2024-10-31T03:09:31.754230,0.17626953125,-0.57958984375,0.40869140625,20.297709923664122,-21.33587786259542,18.801526717557252,21.894705882352945
2024-10-31T03:09:31.860220,0.558349609375,-0.66357421875,0.4287109375,101.56488549618321,36.12213740458015,154.2290076335878,21.941764705882356
2024-10-31T03:09:31.966186,0.17626953125,-0.8212890625,0.52587890625,38.12213740458015,-11.992366412213741,51.43511450381679,21.894705882352945
2024-10-31T03:09:32.072150,0.32568359375,-1.17529296875,0.654296875,-13.625954198473282,-49.98473282442748,-13.893129770992367,21.941764705882356
2024-10-31T03:09:32.178126,0.5478515625,-0.151123046875,1.08349609375,-137.74809160305344,-29.34351145038168,-134.68702290076337,21.894705882352945
2024-10-31T03:09:32.284086,0.2451171875,-0.57861328125,0.493896484375,16.717557251908396,-39.29770992366412,-16.908396946564885,21.941764705882356
2024-10-31T03:09:32.390042,0.226318359375,-0.73583984375,0.561279296875,6.656488549618321,6.977099236641221,11.076335877862595,21.988823529411768
2024-10-31T03:09:32.496007,0.245361328125,-0.791015625,0.50927734375,3.8396946564885495,1.5954198473282444,5.557251908396947,21.847647058823533
2024-10-31T03:09:32.601988,0.254150390625,-0.80712890625,0.529296875,2.717557251908397,-0.19083969465648856,2.2290076335877864,21.988823529411768
2024-10-31T03:09:32.707963,0.245361328125,-0.797119140625,0.54443359375,1.8244274809160306,-0.8396946564885496,1.015267175572519,21.894705882352945
2024-10-31T03:09:32.813933,0.239990234375,-0.817626953125,0.527099609375,1.297709923664122,-0.6259541984732825,1.5725190839694656,21.847647058823533
2024-10-31T03:09:32.919910,0.2412109375,-0.822998046875,0.545166015625,1.3206106870229009,-0.2900763358778626,0.8473282442748091,21.894705882352945
2024-10-31T03:09:33.025887,0.246337890625,-0.8125,0.54931640625,1.3053435114503817,-1.3969465648854962,-0.732824427480916,21.941764705882356
2024-10-31T03:09:33.131864,0.2392578125,-0.821044921875,0.54296875,0.9770992366412213,-1.0305343511450382,0.5572519083969466,21.894705882352945
2024-10-31T03:09:33.237899,0.236083984375,-0.818359375,0.5341796875,1.0381679389312977,-0.22900763358778625,0.9465648854961832,21.941764705882356
2024-10-31T03:09:33.343879,0.2431640625,-0.822021484375,0.52392578125,1.4122137404580153,-0.5038167938931297,-0.015267175572519083,21.941764705882356
2024-10-31T03:09:33.449845,0.235107421875,-0.800048828125,0.5439453125,1.2442748091603053,-0.8702290076335878,-0.4351145038167939,21.988823529411768
2024-10-31T03:09:33.555806,0.23486328125,-0.81640625,0.537109375,0.8778625954198473,-0.6946564885496184,0.25190839694656486,21.847647058823533
2024-10-31T03:09:33.661767,0.2421875,-0.82177734375,0.524658203125,1.099236641221374,-0.2900763358778626,0.48854961832061067,21.988823529411768
2024-10-31T03:09:33.767723,0.236572265625,-0.8134765625,0.53466796875,1.2671755725190839,-1.015267175572519,-0.4122137404580153,21.941764705882356
2024-10-31T03:09:33.873676,0.244384765625,-0.81591796875,0.551025390625,1.0381679389312977,-1.1221374045801527,1.748091603053435,21.941764705882356
2024-10-31T03:09:33.979633,0.24462890625,-0.821044921875,0.52978515625,0.8854961832061069,-0.31297709923664124,0.5877862595419847,21.894705882352945
2024-10-31T03:09:34.085717,0.24169921875,-0.822509765625,0.5302734375,1.3206106870229009,-0.8015267175572519,-0.2824427480916031,21.941764705882356
2024-10-31T03:09:34.191679,0.237548828125,-0.81787109375,0.5390625,1.2061068702290076,-1.213740458015267,-0.8702290076335878,21.988823529411768
2024-10-31T03:09:34.297648,0.23583984375,-0.826416015625,0.531982421875,0.916030534351145,-0.9236641221374046,0.07633587786259542,21.941764705882356
2024-10-31T03:09:34.403612,0.2392578125,-0.816162109375,0.525634765625,1.099236641221374,-0.2824427480916031,0.20610687022900764,21.894705882352945
2024-10-31T03:09:34.509573,0.239501953125,-0.820068359375,0.53125,1.251908396946565,-0.9389312977099237,-0.6183206106870229,21.941764705882356
2024-10-31T03:09:34.615528,0.23388671875,-0.8173828125,0.540771484375,1.0458015267175573,-1.1450381679389312,-0.44274809160305345,21.988823529411768
2024-10-31T03:09:34.721491,0.23681640625,-0.821044921875,0.53662109375,0.8778625954198473,-0.6946564885496184,0.35877862595419846,21.941764705882356
2024-10-31T03:09:34.827466,0.24951171875,-0.819580078125,0.529052734375,1.3053435114503817,-0.3969465648854962,-0.061068702290076333,22.03588235294118
2024-10-31T03:09:34.933428,0.22314453125,-0.816162109375,0.547119140625,1.2671755725190839,-1.0381679389312977,-0.7175572519083969,21.894705882352945
2024-10-31T03:09:35.039390,0.230224609375,-0.818115234375,0.531982421875,0.7862595419847328,-0.9847328244274809,1.8778625954198473,21.847647058823533
2024-10-31T03:09:35.145356,0.2353515625,-0.8232421875,0.526611328125,0.8091603053435115,-0.32061068702290074,0.42748091603053434,21.988823529411768
2024-10-31T03:09:35.251327,0.242919921875,-0.819091796875,0.53369140625,1.3282442748091603,-0.6793893129770993,-0.29770992366412213,22.03588235294118
2024-10-31T03:09:35.357290,0.233642578125,-0.817138671875,0.548095703125,1.1450381679389312,-1.0458015267175573,-0.3053435114503817,21.988823529411768
2024-10-31T03:09:35.463250,0.232421875,-0.823974609375,0.537353515625,0.8549618320610687,-0.5190839694656488,0.6641221374045801,22.03588235294118
2024-10-31T03:09:35.569208,0.235107421875,-0.820068359375,0.529296875,1.0687022900763359,-0.2595419847328244,0.3969465648854962,21.988823529411768
2024-10-31T03:09:35.675179,0.2373046875,-0.820556640625,0.533447265625,1.2900763358778626,-0.6870229007633588,-0.6641221374045801,21.941764705882356
2024-10-31T03:09:35.781166,0.23388671875,-0.820068359375,0.55712890625,0.9007633587786259,-0.9465648854961832,0.32061068702290074,21.894705882352945
2024-10-31T03:09:35.887122,0.23681640625,-0.815185546875,0.52685546875,0.8244274809160306,-0.3053435114503817,0.6030534351145038,21.941764705882356
2024-10-31T03:09:35.993075,0.239990234375,-0.814453125,0.5390625,1.2748091603053435,-0.5267175572519084,-0.1984732824427481,21.988823529411768
2024-10-31T03:09:36.099050,0.233154296875,-0.81494140625,0.543701171875,1.0458015267175573,-0.9770992366412213,-0.5038167938931297,22.03588235294118
2024-10-31T03:09:36.205011,0.23388671875,-0.821044921875,0.545166015625,0.8396946564885496,-0.7022900763358778,0.3969465648854962,21.988823529411768
2024-10-31T03:09:36.310972,0.229248046875,-0.819091796875,0.52685546875,0.9083969465648855,-0.4580152671755725,-1.9541984732824427,21.847647058823533
2024-10-31T03:09:36.416942,0.23388671875,-0.81005859375,0.53466796875,1.015267175572519,-0.9541984732824428,-0.7633587786259542,21.894705882352945
2024-10-31T03:09:36.522901,0.2470703125,-0.81591796875,0.54150390625,0.9083969465648855,-1.0,-0.3282442748091603,21.941764705882356
2024-10-31T03:09:36.628861,0.23388671875,-0.81884765625,0.52783203125,0.9618320610687023,-0.4351145038167939,-0.04580152671755725,21.894705882352945
2024-10-31T03:09:36.734846,0.2373046875,-0.8173828125,0.53271484375,1.2671755725190839,-0.7633587786259542,-0.2366412213740458,21.941764705882356
2024-10-31T03:09:36.840826,0.234130859375,-0.81689453125,0.539306640625,1.0610687022900764,-1.2061068702290076,-0.8015267175572519,22.03588235294118
2024-10-31T03:09:36.946813,0.22705078125,-0.818115234375,0.538818359375,1.083969465648855,-1.2442748091603053,-0.3816793893129771,21.988823529411768
2024-10-31T03:09:37.052798,0.23193359375,-0.81787109375,0.53662109375,0.9618320610687023,-0.4732824427480916,0.32061068702290074,22.08294117647059
2024-10-31T03:09:37.158772,0.224609375,-0.8154296875,0.5263671875,1.4122137404580153,-0.2748091603053435,-1.213740458015267,21.894705882352945
2024-10-31T03:09:37.264735,0.232666015625,-0.816162109375,0.541015625,0.9618320610687023,-1.1603053435114503,-0.5725190839694656,21.941764705882356
2024-10-31T03:09:37.370711,0.236328125,-0.8193359375,0.5283203125,0.9312977099236641,-0.8931297709923665,-0.13740458015267176,21.988823529411768
2024-10-31T03:09:37.476675,0.241455078125,-0.82177734375,0.543212890625,1.1145038167938932,-0.549618320610687,0.0916030534351145,22.03588235294118
2024-10-31T03:09:37.582672,0.23095703125,-0.818359375,0.53125,1.1374045801526718,-0.9618320610687023,-0.48854961832061067,21.988823529411768
2024-10-31T03:09:37.688673,0.228515625,-0.8173828125,0.5439453125,0.916030534351145,-0.916030534351145,0.0,21.988823529411768
2024-10-31T03:09:37.794666,0.23388671875,-0.814208984375,0.5341796875,0.8244274809160306,-0.366412213740458,0.6641221374045801,21.941764705882356
2024-10-31T03:09:37.900653,0.234130859375,-0.821044921875,0.530517578125,1.1908396946564885,-0.6106870229007634,-0.21374045801526717,21.988823529411768
2024-10-31T03:09:38.006630,0.228515625,-0.8154296875,0.544921875,1.1068702290076335,-0.9541984732824428,-0.22900763358778625,21.988823529411768
2024-10-31T03:09:38.112613,0.2294921875,-0.822998046875,0.525634765625,0.8320610687022901,-0.9312977099236641,0.1984732824427481,22.03588235294118
2024-10-31T03:09:38.218582,0.23388671875,-0.815673828125,0.53759765625,1.015267175572519,-0.4122137404580153,0.3816793893129771,21.988823529411768
2024-10-31T03:09:38.324539,0.227783203125,-0.821044921875,0.545166015625,1.251908396946565,-0.6793893129770993,-0.2900763358778626,22.03588235294118
2024-10-31T03:09:38.430512,0.23095703125,-0.81396484375,0.54296875,0.8549618320610687,-0.8778625954198473,0.1297709923664122,21.988823529411768
2024-10-31T03:09:38.536476,0.2373046875,-0.81591796875,0.53125,0.8702290076335878,-0.46564885496183206,0.4351145038167939,21.941764705882356
2024-10-31T03:09:38.642458,0.22021484375,-0.822509765625,0.53759765625,1.1450381679389312,-0.7404580152671756,0.17557251908396945,22.03588235294118
2024-10-31T03:09:38.748435,0.231689453125,-0.818359375,0.537841796875,1.0458015267175573,-0.916030534351145,-0.16030534351145037,21.988823529411768
2024-10-31T03:09:38.854396,0.23193359375,-0.815185546875,0.5361328125,0.9541984732824428,-0.5725190839694656,0.15267175572519084,21.941764705882356
2024-10-31T03:09:38.960358,0.2314453125,-0.816650390625,0.536865234375,0.916030534351145,-0.48854961832061067,0.15267175572519084,21.988823529411768
2024-10-31T03:09:39.066400,0.240478515625,-0.818359375,0.529541015625,1.2061068702290076,-0.8625954198473282,-0.4198473282442748,21.988823529411768
2024-10-31T03:09:39.172368,0.228515625,-0.818115234375,0.5498046875,1.1603053435114503,-1.0229007633587786,-0.3282442748091603,21.941764705882356
2024-10-31T03:09:39.278340,0.29931640625,0.26708984375,-0.162841796875,250.12977099236642,-113.13740458015268,250.12977099236642,22.08294117647059
2024-10-31T03:09:39.384296,0.159912109375,-0.72998046875,0.612548828125,-179.6946564885496,-99.41984732824427,-250.13740458015266,22.03588235294118
2024-10-31T03:09:39.490254,0.230712890625,0.015869140625,-0.15869140625,222.96946564885496,-119.90076335877863,250.12977099236642,21.988823529411768
2024-10-31T03:09:39.596223,0.013427734375,-0.8876953125,0.363037109375,-225.93129770992365,-54.961832061068705,-250.13740458015266,22.03588235294118
2024-10-31T03:09:39.702183,0.693115234375,-0.95556640625,0.62060546875,140.206106870229,-32.18320610687023,114.04580152671755,21.988823529411768
2024-10-31T03:09:39.808148,0.136474609375,-2.0,-0.32568359375,-101.65648854961832,106.61832061068702,-250.13740458015266,21.941764705882356
2024-10-31T03:09:39.914110,0.2802734375,-0.643310546875,0.50732421875,-32.44274809160305,-36.83206106870229,-48.213740458015266,21.988823529411768
2024-10-31T03:09:40.020073,0.064453125,-0.341552734375,-0.03125,99.74045801526718,167.24427480916032,209.7175572519084,21.988823529411768
2024-10-31T03:09:40.126046,0.163818359375,-0.977294921875,0.412109375,57.88549618320611,-41.900763358778626,68.13740458015268,22.03588235294118
2024-10-31T03:09:40.232003,1.216552734375,-1.121826171875,1.02294921875,-10.48091603053435,78.45038167938931,230.13740458015266,21.988823529411768
2024-10-31T03:09:40.337950,0.12646484375,-1.02099609375,0.63818359375,-5.106870229007634,-68.73282442748092,-30.38167938931298,21.941764705882356
2024-10-31T03:09:40.443896,0.55615234375,-1.29150390625,0.64208984375,-22.83206106870229,-126.99236641221374,116.8473282442748,22.08294117647059
2024-10-31T03:09:40.549838,0.123291015625,-0.863525390625,0.541015625,-23.022900763358777,-40.6793893129771,-62.0763358778626,21.988823529411768
2024-10-31T03:09:40.655806,0.190185546875,-0.6708984375,0.32373046875,-70.09160305343511,-15.931297709923664,-102.3206106870229,22.03588235294118
2024-10-31T03:09:40.761789,0.330810546875,-0.337646484375,0.540771484375,-61.79389312977099,-3.4580152671755724,15.083969465648854,21.988823529411768
2024-10-31T03:09:40.867748,0.19287109375,-0.670166015625,0.4287109375,57.725190839694655,-34.45038167938932,46.541984732824424,22.08294117647059
2024-10-31T03:09:40.973718,0.552490234375,-1.162841796875,-1.091552734375,224.13740458015266,151.81679389312978,194.49618320610688,22.130000000000003
2024-10-31T03:09:41.079683,0.142333984375,-1.171875,0.001220703125,-86.31297709923665,98.80916030534351,-173.33587786259542,22.08294117647059
2024-10-31T03:09:41.185668,0.1318359375,-0.9580078125,0.145751953125,-59.282442748091604,-24.732824427480917,-249.84732824427482,22.130000000000003
2024-10-31T03:09:41.291631,0.4990234375,0.085693359375,1.24853515625,-15.534351145038167,-44.465648854961835,-41.770992366412216,21.988823529411768
2024-10-31T03:09:41.397607,0.24365234375,-0.555419921875,0.544921875,4.419847328244275,-43.61832061068702,-30.85496183206107,22.130000000000003
2024-10-31T03:09:41.503568,0.3447265625,-0.517578125,0.365966796875,-10.076335877862595,29.15267175572519,-198.68702290076337,21.988823529411768
2024-10-31T03:09:41.609533,0.162841796875,-1.004638671875,0.7548828125,29.84732824427481,-56.47328244274809,21.82442748091603,22.03588235294118
2024-10-31T03:09:41.715491,0.255615234375,-1.076171875,0.43212890625,-36.6412213740458,-49.01526717557252,-80.38931297709924,22.08294117647059
2024-10-31T03:09:41.821451,0.364013671875,0.0615234375,0.49169921875,-57.70992366412214,-0.022900763358778626,32.86259541984733,22.130000000000003
2024-10-31T03:09:41.927422,0.174072265625,-0.69580078125,0.3955078125,56.534351145038165,-24.198473282442748,68.85496183206106,21.988823529411768
2024-10-31T03:09:42.033414,0.473876953125,-1.13720703125,0.656005859375,-18.870229007633586,-84.68702290076335,11.122137404580153,22.03588235294118
2024-10-31T03:09:42.139381,0.117919921875,-0.039794921875,0.04248046875,28.53435114503817,28.732824427480917,51.83969465648855,21.988823529411768
2024-10-31T03:09:42.245340,0.158935546875,-0.846923828125,0.421630859375,50.06106870229008,-16.33587786259542,63.70992366412214,22.130000000000003
2024-10-31T03:09:42.351313,0.658203125,-1.2685546875,0.753662109375,63.52671755725191,-87.14503816793894,105.91603053435115,21.988823529411768
2024-10-31T03:09:42.457279,0.25732421875,-0.47607421875,0.29150390625,10.251908396946565,43.717557251908396,-13.450381679389313,22.03588235294118
2024-10-31T03:09:42.563242,0.2451171875,-0.631103515625,0.5205078125,-11.16030534351145,-16.633587786259543,-18.83969465648855,21.988823529411768
2024-10-31T03:09:42.669206,0.34033203125,-1.26708984375,0.4453125,-7.259541984732825,-55.725190839694655,-48.54961832061068,22.130000000000003
2024-10-31T03:09:42.775182,0.38525390625,-0.259521484375,0.514892578125,6.396946564885496,22.64885496183206,40.63358778625954,22.08294117647059
2024-10-31T03:09:42.881177,0.244384765625,-0.63623046875,0.525634765625,12.969465648854962,4.122137404580153,24.404580152671755,22.130000000000003
2024-10-31T03:09:42.987169,0.208251953125,-1.128173828125,0.559326171875,-17.541984732824428,-9.473282442748092,-46.33587786259542,22.03588235294118
2024-10-31T03:09:43.093180,0.378173828125,-0.5849609375,0.2431640625,109.58778625954199,46.51908396946565,165.35114503816794,22.177058823529414
2024-10-31T03:09:43.199172,0.426513671875,-0.76318359375,0.51123046875,-81.53435114503817,15.488549618320612,-105.46564885496183,22.03588235294118
2024-10-31T03:09:43.305158,0.21630859375,-0.897216796875,0.6279296875,-14.717557251908397,16.221374045801525,-14.374045801526718,22.177058823529414
2024-10-31T03:09:43.411127,0.33740234375,-0.802978515625,0.48681640625,69.41221374045801,-9.374045801526718,111.54198473282443,22.03588235294118
2024-10-31T03:09:43.517101,0.64306640625,-0.210205078125,0.7958984375,38.11450381679389,-22.96946564885496,226.6793893129771,22.177058823529414
2024-10-31T03:09:43.623073,0.1513671875,-1.034423828125,0.496337890625,-22.328244274809162,53.7557251908397,-109.00763358778626,22.03588235294118
2024-10-31T03:09:43.729041,0.143798828125,-0.976318359375,0.491455078125,29.061068702290076,-10.877862595419847,35.13740458015267,22.08294117647059
2024-10-31T03:09:43.835017,0.334716796875,-0.815185546875,0.48486328125,48.7557251908397,-8.763358778625955,81.05343511450381,22.130000000000003
2024-10-31T03:09:43.940978,0.225830078125,-0.84130859375,0.47998046875,-13.854961832061068,6.862595419847328,-30.16030534351145,22.08294117647059
2024-10-31T03:09:44.046960,0.12255859375,-0.95751953125,0.512451171875,-19.900763358778626,10.259541984732824,-56.48854961832061,22.130000000000003
2024-10-31T03:09:44.152921,0.326171875,-0.798095703125,0.385986328125,83.73282442748092,5.9541984732824424,122.54961832061069,22.08294117647059
2024-10-31T03:09:44.258875,0.523193359375,-0.344970703125,0.21044921875,-37.43511450381679,-28.778625954198475,-76.4885496183206,22.03588235294118
2024-10-31T03:09:44.364830,-0.158447265625,-1.087158203125,0.47509765625,-38.97709923664122,48.06106870229008,-97.06870229007633,22.177058823529414
2024-10-31T03:09:44.470784,0.797119140625,-0.920654296875,0.56298828125,178.80152671755727,109.02290076335878,250.12977099236642,22.03588235294118
2024-10-31T03:09:44.576748,0.316650390625,-0.74755859375,0.47900390625,-13.389312977099237,39.458015267175576,-43.44274809160305,22.08294117647059
2024-10-31T03:09:44.682715,0.1630859375,-0.767822265625,0.510986328125,-49.35114503816794,-28.72519083969466,-62.94656488549618,22.130000000000003
2024-10-31T03:09:44.788685,0.5166015625,-0.7158203125,0.74462890625,-38.038167938931295,-19.87786259541985,-79.61832061068702,22.08294117647059
2024-10-31T03:09:44.894756,0.206298828125,-0.970947265625,0.5791015625,1.3740458015267176,-33.45038167938932,-13.572519083969466,22.08294117647059
2024-10-31T03:09:45.000749,0.26416015625,-0.85986328125,0.53271484375,-8.229007633587786,1.0458015267175573,-16.404580152671755,22.130000000000003
2024-10-31T03:09:45.106722,0.148681640625,-0.697998046875,0.45947265625,71.72519083969466,20.587786259541986,106.05343511450381,22.130000000000003
2024-10-31T03:09:45.212693,0.232421875,-0.81005859375,0.50732421875,26.84732824427481,3.633587786259542,42.045801526717554,22.08294117647059
2024-10-31T03:09:45.318662,0.256103515625,-0.915771484375,0.54638671875,50.98473282442748,8.717557251908397,79.4885496183206,22.130000000000003
2024-10-31T03:09:45.424625,0.688232421875,-0.357177734375,0.573974609375,-94.21374045801527,-29.297709923664122,-151.53435114503816,22.08294117647059
2024-10-31T03:09:45.530603,0.201416015625,-0.6923828125,0.47802734375,-23.297709923664122,-3.3893129770992365,-41.61832061068702,22.03588235294118
2024-10-31T03:09:45.636564,0.52587890625,-0.490966796875,0.451904296875,22.236641221374047,-7.801526717557252,52.969465648854964,22.08294117647059
2024-10-31T03:09:45.742565,0.562744140625,-0.35498046875,0.534423828125,-143.33587786259542,-29.641221374045802,-250.13740458015266,22.130000000000003
2024-10-31T03:09:45.848518,0.37158203125,-0.674560546875,0.4296875,-57.31297709923664,-50.98473282442748,-52.38931297709924,22.08294117647059
2024-10-31T03:09:45.954471,0.15673828125,-0.727294921875,0.537353515625,-15.404580152671755,-18.34351145038168,-26.80916030534351,22.130000000000003
2024-10-31T03:09:46.060442,0.315185546875,-0.76953125,0.545166015625,1.465648854961832,-1.786259541984733,0.061068702290076333,22.08294117647059
2024-10-31T03:09:46.166413,0.267578125,-0.8037109375,0.52001953125,1.7099236641221374,-0.6106870229007634,2.0,21.471176470588237
2024-10-31T03:09:46.272369,0.267578125,-0.8134765625,0.502197265625,1.7557251908396947,-0.12213740458015267,1.6488549618320612,22.08294117647059
2024-10-31T03:09:46.378344,0.263671875,-0.814453125,0.52197265625,1.6641221374045803,-0.5572519083969466,0.3511450381679389,22.130000000000003
2024-10-31T03:09:46.484308,0.255859375,-0.8193359375,0.535888671875,1.366412213740458,-0.9236641221374046,0.7557251908396947,22.08294117647059
2024-10-31T03:09:46.590269,0.253173828125,-0.8173828125,0.52001953125,1.366412213740458,-0.6335877862595419,1.4198473282442747,22.130000000000003
2024-10-31T03:09:46.696238,0.25439453125,-0.818603515625,0.52783203125,1.4732824427480915,-0.48854961832061067,0.26717557251908397,22.177058823529414
2024-10-31T03:09:46.802208,0.256103515625,-0.81884765625,0.537109375,1.2213740458015268,-0.7557251908396947,0.007633587786259542,22.130000000000003
2024-10-31T03:09:46.908164,0.25146484375,-0.814697265625,0.535400390625,1.0534351145038168,-0.7022900763358778,0.5038167938931297,22.08294117647059
2024-10-31T03:09:47.014144,0.256103515625,-0.822021484375,0.52490234375,1.1984732824427482,-0.3969465648854962,0.8091603053435115,22.130000000000003
2024-10-31T03:09:47.123613,0.235107421875,-0.820556640625,0.5263671875,0.9083969465648855,-0.33587786259541985,1.2595419847328244,22.93
2024-10-31T03:09:47.229633,0.255126953125,-0.813720703125,0.524169921875,1.1908396946564885,-0.6259541984732825,0.5801526717557252,21.471176470588237
2024-10-31T03:09:47.336739,0.2490234375,-0.815185546875,0.52294921875,1.4809160305343512,-0.7251908396946565,-0.6335877862595419,22.130000000000003
2024-10-31T03:09:47.442828,0.246826171875,-0.813720703125,0.536376953125,1.1221374045801527,-0.8931297709923665,-0.22900763358778625,22.03588235294118
2024-10-31T03:09:47.548895,0.23583984375,-0.81298828125,0.526123046875,1.0305343511450382,-0.549618320610687,1.1221374045801527,21.471176470588237
2024-10-31T03:09:47.655059,0.2470703125,-0.82275390625,0.517822265625,1.2595419847328244,-0.25190839694656486,0.44274809160305345,22.08294117647059
2024-10-31T03:09:47.761563,0.25146484375,-0.82080078125,0.5322265625,1.6793893129770991,-0.8091603053435115,-0.07633587786259542,22.08294117647059
2024-10-31T03:09:47.867532,0.24609375,-0.816162109375,0.539306640625,0.6717557251908397,-1.0687022900763359,-0.2824427480916031,22.130000000000003
2024-10-31T03:09:47.973625,0.244873046875,-0.81298828125,0.5185546875,1.0229007633587786,-0.6793893129770993,0.9312977099236641,22.130000000000003
2024-10-31T03:09:48.079630,0.244140625,-0.818359375,0.51708984375,1.366412213740458,-0.5343511450381679,-1.786259541984733,22.08294117647059
2024-10-31T03:09:48.185579,0.245361328125,-0.814697265625,0.533203125,1.4885496183206106,-0.9923664122137404,-0.48091603053435117,22.130000000000003
2024-10-31T03:09:48.291522,0.23486328125,-0.810791015625,0.54052734375,1.0381679389312977,-1.1603053435114503,1.0916030534351144,22.177058823529414
2024-10-31T03:09:48.397489,0.245849609375,-0.82275390625,0.523193359375,1.0534351145038168,-0.33587786259541985,0.549618320610687,22.03588235294118
2024-10-31T03:09:48.503504,0.255859375,-0.8134765625,0.53076171875,1.3129770992366412,-0.5572519083969466,-0.732824427480916,22.130000000000003
2024-10-31T03:09:48.609494,0.240478515625,-0.821533203125,0.55517578125,0.6870229007633588,-1.3358778625954197,-1.282442748091603,22.177058823529414
2024-10-31T03:09:48.715511,0.245849609375,-0.813232421875,0.537353515625,0.6030534351145038,-0.7633587786259542,0.19083969465648856,22.08294117647059
2024-10-31T03:09:48.821682,0.247314453125,-0.817626953125,0.522705078125,1.1374045801526718,-0.5801526717557252,0.5343511450381679,22.130000000000003
2024-10-31T03:09:48.928020,0.2421875,-0.8232421875,0.54541015625,1.1145038167938932,-0.37404580152671757,-1.1526717557251909,22.130000000000003
2024-10-31T03:09:49.034008,0.244384765625,-0.818115234375,0.541259765625,0.9236641221374046,-1.3435114503816794,-0.42748091603053434,22.177058823529414
2024-10-31T03:09:49.139933,0.241943359375,-0.822509765625,0.54052734375,0.8549618320610687,-0.6946564885496184,0.8473282442748091,21.471176470588237
2024-10-31T03:09:49.245900,0.235107421875,-0.824951171875,0.52197265625,1.2442748091603053,-0.21374045801526717,-0.2824427480916031,22.08294117647059
2024-10-31T03:09:49.351987,0.2470703125,-0.817626953125,0.540771484375,1.2290076335877862,-0.816793893129771,-1.1221374045801527,22.177058823529414
2024-10-31T03:09:49.457996,0.239990234375,-0.8173828125,0.544189453125,0.7404580152671756,-1.0610687022900764,1.8473282442748091,22.177058823529414
2024-10-31T03:09:49.563930,0.24169921875,-0.822021484375,0.51708984375,1.0305343511450382,-0.48091603053435117,0.732824427480916,22.130000000000003
2024-10-31T03:09:49.669848,0.243896484375,-0.822021484375,0.526611328125,1.1755725190839694,-0.6641221374045801,-0.17557251908396945,22.08294117647059
2024-10-31T03:09:49.775756,0.238037109375,-0.8193359375,0.54296875,1.2366412213740459,-1.1068702290076335,1.83206106870229,22.177058823529414
2024-10-31T03:09:49.881661,0.2421875,-0.822509765625,0.542724609375,0.9923664122137404,-0.6793893129770993,1.183206106870229,22.130000000000003
2024-10-31T03:09:49.987558,0.2470703125,-0.81884765625,0.513427734375,1.3358778625954197,-0.2595419847328244,0.31297709923664124,22.177058823529414
2024-10-31T03:09:50.093454,0.259033203125,-0.800048828125,0.54150390625,1.0610687022900764,-0.9618320610687023,-0.48854961832061067,22.130000000000003
2024-10-31T03:09:50.199342,0.23681640625,-0.82666015625,0.54638671875,0.7099236641221374,-0.9236641221374046,0.35877862595419846,22.130000000000003
2024-10-31T03:09:50.305228,0.2373046875,-0.8154296875,0.515625,1.3587786259541985,-0.22137404580152673,1.0763358778625953,22.177058823529414
2024-10-31T03:09:50.411116,0.236572265625,-0.825927734375,0.52783203125,1.3129770992366412,-0.4961832061068702,-0.4961832061068702,22.177058823529414
2024-10-31T03:09:50.517002,0.24169921875,-0.817138671875,0.543701171875,1.0534351145038168,-1.099236641221374,-0.31297709923664124,21.471176470588237
2024-10-31T03:09:50.622889,0.240966796875,-0.8173828125,0.5205078125,0.816793893129771,-0.45038167938931295,0.9541984732824428,22.130000000000003
2024-10-31T03:09:50.728833,0.24609375,-0.82421875,0.522705078125,1.4274809160305344,-0.1450381679389313,-0.04580152671755725,22.271176470588237
2024-10-31T03:09:50.834723,0.2431640625,-0.818115234375,0.533447265625,0.916030534351145,-0.8396946564885496,-1.0,21.471176470588237
2024-10-31T03:09:50.940609,0.239990234375,-0.81201171875,0.546875,0.6564885496183206,-0.8625954198473282,0.3893129770992366,22.130000000000003
2024-10-31T03:09:51.046495,0.238037109375,-0.81591796875,0.52294921875,0.8854961832061069,-0.16030534351145037,0.6870229007633588,22.177058823529414
2024-10-31T03:09:51.152379,0.24365234375,-0.82177734375,0.526611328125,1.0229007633587786,-0.5877862595419847,-1.0305343511450382,21.51823529411765
2024-10-31T03:09:51.258261,0.240234375,-0.81689453125,0.550537109375,0.7709923664122137,-1.3435114503816794,-0.7786259541984732,21.51823529411765
2024-10-31T03:09:51.364144,0.237548828125,-0.822509765625,0.532470703125,0.8015267175572519,-0.5801526717557252,0.7022900763358778,21.471176470588237
2024-10-31T03:09:51.470027,0.23974609375,-0.81982421875,0.52880859375,1.297709923664122,-0.3511450381679389,-0.3969465648854962,22.177058823529414
2024-10-31T03:09:51.575910,0.242431640625,-0.8154296875,0.54638671875,1.2671755725190839,-1.1984732824427482,-1.3435114503816794,22.177058823529414
2024-10-31T03:09:51.681804,0.238037109375,-0.816650390625,0.54736328125,0.8702290076335878,-1.0687022900763359,0.48091603053435117,22.130000000000003
2024-10-31T03:09:51.787694,0.246826171875,-0.81884765625,0.51708984375,1.2061068702290076,-0.4580152671755725,0.29770992366412213,22.177058823529414
2024-10-31T03:09:51.893576,0.242431640625,-0.818115234375,0.545654296875,1.3587786259541985,-0.9770992366412213,-0.8473282442748091,22.177058823529414
2024-10-31T03:09:51.999462,0.23779296875,-0.815185546875,0.545654296875,1.1984732824427482,-1.2366412213740459,1.7633587786259541,22.271176470588237
2024-10-31T03:09:52.105348,0.24169921875,-0.813720703125,0.5166015625,1.0610687022900764,-0.5954198473282443,1.0229007633587786,21.471176470588237
2024-10-31T03:09:52.211284,0.239990234375,-0.8251953125,0.532470703125,1.6259541984732824,-0.5114503816793893,-0.32061068702290074,22.177058823529414
2024-10-31T03:09:52.317275,0.23974609375,-0.812744140625,0.556396484375,1.1450381679389312,-1.4045801526717556,-0.9847328244274809,21.471176470588237
2024-10-31T03:09:52.423551,0.23974609375,-0.815185546875,0.538818359375,0.8625954198473282,-1.1526717557251909,0.48091603053435117,22.882941176470588
2024-10-31T03:09:52.529583,0.24169921875,-0.827880859375,0.531005859375,1.0916030534351144,-0.6183206106870229,1.0381679389312977,22.271176470588237
2024-10-31T03:09:52.635523,0.241455078125,-0.8203125,0.527099609375,1.4351145038167938,-0.9465648854961832,-0.8931297709923665,22.130000000000003
2024-10-31T03:09:52.741445,0.234619140625,-0.816650390625,0.560546875,0.9923664122137404,-1.2900763358778626,-0.6641221374045801,22.177058823529414
2024-10-31T03:09:52.847346,0.240478515625,-0.812744140625,0.525634765625,0.816793893129771,-0.5725190839694656,0.9541984732824428,22.224117647058826
2024-10-31T03:09:52.953330,0.237548828125,-0.824951171875,0.527099609375,1.0458015267175573,-0.33587786259541985,0.1984732824427481,21.51823529411765
2024-10-31T03:09:53.059461,0.247314453125,-0.81982421875,0.545166015625,1.1221374045801527,-0.8320610687022901,-1.0076335877862594,22.271176470588237
2024-10-31T03:09:53.165521,0.2236328125,-0.817626953125,0.545654296875,0.7251908396946565,-1.2061068702290076,0.022900763358778626,22.177058823529414
2024-10-31T03:09:53.271573,0.2392578125,-0.822265625,0.52880859375,0.8778625954198473,-0.48854961832061067,1.0534351145038168,22.93
2024-10-31T03:09:53.377606,0.241455078125,-0.81689453125,0.528076171875,1.0916030534351144,-0.8625954198473282,-0.22900763358778625,22.130000000000003
2024-10-31T03:09:53.483643,0.234130859375,-0.814208984375,0.544921875,0.9236641221374046,-0.7709923664122137,-1.2671755725190839,22.177058823529414
2024-10-31T03:09:53.589697,0.220703125,-0.81787109375,0.540283203125,0.6946564885496184,-1.0610687022900764,1.2671755725190839,22.882941176470588
2024-10-31T03:09:53.695717,0.239013671875,-0.82080078125,0.518798828125,1.0,-0.21374045801526717,0.8320610687022901,22.08294117647059
2024-10-31T03:09:53.801690,0.22900390625,-0.82275390625,0.53466796875,1.183206106870229,-0.8244274809160306,-3.7251908396946565,22.130000000000003
2024-10-31T03:09:53.907687,0.24169921875,-0.81201171875,0.552001953125,0.6183206106870229,-1.1908396946564885,-0.8244274809160306,22.93
2024-10-31T03:09:54.013699,0.238037109375,-0.81787109375,0.539794921875,0.6335877862595419,-0.2824427480916031,0.6564885496183206,22.177058823529414
2024-10-31T03:09:54.119818,0.233642578125,-0.821533203125,0.528564453125,1.4198473282442747,-1.8702290076335877,-1.8015267175572518,22.177058823529414
2024-10-31T03:09:54.226087,0.23828125,-0.806884765625,0.54638671875,1.366412213740458,-0.648854961832061,-0.732824427480916,21.471176470588237
2024-10-31T03:09:54.332189,0.236083984375,-0.816162109375,0.550537109375,1.0534351145038168,-1.2900763358778626,0.24427480916030533,22.177058823529414
2024-10-31T03:09:54.438182,0.23876953125,-0.81787109375,0.535400390625,1.0610687022900764,-0.3969465648854962,0.8396946564885496,21.471176470588237
2024-10-31T03:09:54.544118,0.240478515625,-0.818359375,0.529052734375,1.3435114503816794,-0.46564885496183206,-1.8778625954198473,22.177058823529414
2024-10-31T03:09:54.650071,0.249755859375,-0.81982421875,0.55078125,1.1755725190839694,-1.3358778625954197,-1.0610687022900764,22.224117647058826
2024-10-31T03:09:54.756033,0.248046875,-0.8037109375,0.537841796875,0.9007633587786259,-0.5725190839694656,0.3282442748091603,22.177058823529414
2024-10-31T03:09:54.861997,0.23779296875,-0.82080078125,0.53076171875,1.0305343511450382,-0.22900763358778625,0.42748091603053434,22.93
2024-10-31T03:09:54.968002,0.2412109375,-0.8203125,0.53173828125,1.2671755725190839,-0.7862595419847328,-1.282442748091603,22.93
2024-10-31T03:09:55.074009,0.236083984375,-0.814697265625,0.55126953125,0.6946564885496184,-1.2748091603053435,-0.8396946564885496,21.471176470588237
2024-10-31T03:09:55.179991,0.236572265625,-0.81689453125,0.533447265625,0.7099236641221374,-0.816793893129771,0.9465648854961832,22.177058823529414
2024-10-31T03:09:55.285910,0.2431640625,-0.821044921875,0.52099609375,1.0534351145038168,-0.45038167938931295,-0.5419847328244275,21.471176470588237
2024-10-31T03:09:55.391836,0.240234375,-0.814453125,0.544677734375,1.1755725190839694,-1.2748091603053435,-0.366412213740458,22.177058823529414
2024-10-31T03:09:55.497854,0.248291015625,-0.81494140625,0.545654296875,0.7022900763358778,-1.0610687022900764,0.05343511450381679,21.471176470588237
2024-10-31T03:09:55.603872,0.234619140625,-0.81591796875,0.530029296875,0.6412213740458015,-0.19083969465648856,0.3435114503816794,22.177058823529414
2024-10-31T03:09:55.709863,0.239013671875,-0.81640625,0.516845703125,0.9618320610687023,-0.7862595419847328,-0.6259541984732825,22.177058823529414
2024-10-31T03:09:55.815885,0.236083984375,-0.818359375,0.5390625,0.9694656488549618,-1.2748091603053435,-1.0687022900763359,22.130000000000003
2024-10-31T03:09:55.922031,0.236572265625,-0.816650390625,0.5380859375,0.3816793893129771,-0.9618320610687023,0.12213740458015267,22.177058823529414
2024-10-31T03:09:56.028065,0.236328125,-0.819091796875,0.533447265625,0.7786259541984732,-0.13740458015267176,0.42748091603053434,21.471176470588237
2024-10-31T03:09:56.134044,0.239501953125,-0.82568359375,0.5341796875,1.099236641221374,-0.4122137404580153,-3.8702290076335877,22.177058823529414
2024-10-31T03:09:56.239964,0.236572265625,-0.8134765625,0.552734375,0.7709923664122137,-1.0763358778625953,0.16030534351145037,22.130000000000003
2024-10-31T03:09:56.346144,0.22998046875,-0.8203125,0.5263671875,1.0916030534351144,-0.2824427480916031,0.11450381679389313,22.882941176470588
2024-10-31T03:09:56.452170,0.23828125,-0.820556640625,0.52587890625,1.183206106870229,-0.366412213740458,-1.8473282442748091,22.130000000000003
2024-10-31T03:09:56.558209,0.22119140625,-0.81689453125,0.544677734375,1.2442748091603053,-0.9618320610687023,-0.6030534351145038,22.130000000000003
2024-10-31T03:09:56.664188,0.238525390625,-0.816162109375,0.547119140625,0.8931297709923665,-0.7786259541984732,0.48854961832061067,22.271176470588237
2024-10-31T03:09:56.770201,0.23974609375,-0.8212890625,0.530517578125,1.099236641221374,-0.26717557251908397,1.1374045801526718,22.93
2024-10-31T03:09:56.876210,0.237548828125,-0.816650390625,0.531982421875,1.7709923664122138,-0.366412213740458,-0.48854961832061067,21.471176470588237
2024-10-31T03:09:56.982226,0.236572265625,-0.815185546875,0.552734375,1.015267175572519,-1.2900763358778626,1.5725190839694656,22.36529411764706
2024-10-31T03:09:57.088373,0.222900390625,-0.814208984375,0.53955078125,0.6564885496183206,-0.45038167938931295,0.5572519083969466,22.224117647058826
2024-10-31T03:09:57.194407,0.23583984375,-0.8173828125,0.524169921875,1.0458015267175573,0.07633587786259542,-0.3511450381679389,22.93
2024-10-31T03:09:57.300335,0.2431640625,-0.813720703125,0.552978515625,1.1526717557251909,-0.6412213740458015,-0.7175572519083969,21.471176470588237
2024-10-31T03:09:57.406335,0.23583984375,-0.815185546875,0.534912109375,1.0381679389312977,-1.0687022900763359,-0.366412213740458,22.93
2024-10-31T03:09:57.512319,0.233154296875,-0.819091796875,0.536376953125,0.9770992366412213,-0.2824427480916031,0.549618320610687,21.51823529411765
2024-10-31T03:09:57.618292,0.23583984375,-0.819091796875,0.5322265625,1.465648854961832,-0.48854961832061067,0.21374045801526717,22.93
2024-10-31T03:09:57.724223,0.240478515625,-0.81396484375,0.546875,1.183206106870229,-1.2213740458015268,-0.5648854961832062,22.93
2024-10-31T03:09:57.830158,0.21875,-0.8134765625,0.534423828125,0.5038167938931297,-0.8473282442748091,1.83206106870229,22.177058823529414
2024-10-31T03:09:57.936075,0.237548828125,-0.81396484375,0.5263671875,0.7557251908396947,-0.183206106870229,-0.15267175572519084,21.56529411764706
2024-10-31T03:09:58.041983,0.230224609375,-0.8154296875,0.5380859375,0.8931297709923665,-0.8015267175572519,-1.4580152671755726,22.224117647058826
2024-10-31T03:09:58.147894,0.233154296875,-0.820556640625,0.559814453125,0.7251908396946565,-1.0916030534351144,-0.6717557251908397,22.93
2024-10-31T03:09:58.253790,0.237060546875,-0.813232421875,0.535400390625,0.6793893129770993,-0.35877862595419846,0.7022900763358778,22.224117647058826
2024-10-31T03:09:58.359697,0.237548828125,-0.816162109375,0.543212890625,1.3129770992366412,-0.46564885496183206,-1.702290076335878,21.471176470588237
2024-10-31T03:09:58.465596,0.235595703125,-0.8125,0.558349609375,1.3511450381679388,-1.3053435114503817,-0.5267175572519084,22.93
2024-10-31T03:09:58.571492,0.231201171875,-0.81298828125,0.524658203125,1.0229007633587786,-1.0,0.25190839694656486,22.93
2024-10-31T03:09:58.677388,0.23095703125,-0.81689453125,0.5263671875,1.2061068702290076,-0.44274809160305345,0.6793893129770993,22.130000000000003
2024-10-31T03:09:58.783283,0.23486328125,-0.81494140625,0.535888671875,1.2290076335877862,-0.9770992366412213,-0.7175572519083969,22.224117647058826
2024-10-31T03:09:58.889182,0.231689453125,-0.81982421875,0.5546875,0.8625954198473282,-1.0687022900763359,-0.48091603053435117,22.177058823529414
2024-10-31T03:09:58.995090,0.236572265625,-0.817138671875,0.53857421875,0.7786259541984732,-0.4580152671755725,0.2595419847328244,22.93
2024-10-31T03:09:59.100961,0.23974609375,-0.822509765625,0.529296875,1.083969465648855,-0.5725190839694656,-0.42748091603053434,22.93
2024-10-31T03:09:59.206892,0.22021484375,-0.8134765625,0.548583984375,1.0763358778625953,-1.0534351145038168,-0.6183206106870229,22.224117647058826
2024-10-31T03:09:59.312807,0.236572265625,-0.81787109375,0.540771484375,0.8625954198473282,-0.8091603053435115,0.5038167938931297,22.177058823529414
2024-10-31T03:09:59.418697,0.234619140625,-0.822998046875,0.531982421875,0.9847328244274809,-0.20610687022900764,0.3282442748091603,22.130000000000003
2024-10-31T03:09:59.524584,0.247802734375,-0.818115234375,0.544189453125,1.2290076335877862,-0.8549618320610687,-0.4961832061068702,22.224117647058826
2024-10-31T03:09:59.630473,0.231201171875,-0.814453125,0.5439453125,0.9083969465648855,-1.0,-0.2900763358778626,22.224117647058826
2024-10-31T03:09:59.736372,0.235595703125,-0.817138671875,0.53271484375,0.7099236641221374,-0.183206106870229,0.3282442748091603,22.177058823529414
2024-10-31T03:09:59.842264,0.23046875,-0.8173828125,0.53271484375,1.099236641221374,-0.648854961832061,-0.26717557251908397,22.93
2024-10-31T03:09:59.948151,0.233154296875,-0.82080078125,0.542236328125,0.9312977099236641,-1.015267175572519,-0.6106870229007634,22.224117647058826
2024-10-31T03:10:00.054047,0.23388671875,-0.814697265625,0.53759765625,0.9312977099236641,-0.5725190839694656,0.6717557251908397,22.130000000000003
2024-10-31T03:10:00.159939,0.23095703125,-0.8203125,0.54541015625,1.213740458015267,-0.32061068702290074,0.549618320610687,22.93
2024-10-31T03:10:00.265823,0.233154296875,-0.818359375,0.541015625,1.4198473282442747,-0.9541984732824428,-0.31297709923664124,22.177058823529414
2024-10-31T03:10:00.371706,0.239013671875,-0.814453125,0.545166015625,0.816793893129771,-1.0458015267175573,0.24427480916030533,22.271176470588237
2024-10-31T03:10:00.477590,0.240234375,-0.817626953125,0.522216796875,0.8396946564885496,-0.37404580152671757,0.45038167938931295,22.224117647058826
2024-10-31T03:10:00.583471,0.232177734375,-0.816650390625,0.53271484375,0.9541984732824428,-0.6717557251908397,-0.25190839694656486,21.471176470588237
2024-10-31T03:10:00.689427,0.23681640625,-0.812744140625,0.546875,0.9389312977099237,-0.9541984732824428,-0.6793893129770993,22.93
2024-10-31T03:10:00.795408,0.232666015625,-0.82177734375,0.538818359375,0.6183206106870229,-0.7404580152671756,-0.022900763358778626,22.130000000000003
2024-10-31T03:10:00.901327,0.2294921875,-0.821533203125,0.535400390625,0.8015267175572519,-0.3969465648854962,-0.08396946564885496,21.51823529411765
2024-10-31T03:10:01.007225,0.229248046875,-0.81591796875,0.542724609375,1.0534351145038168,-0.9618320610687023,-0.5190839694656488,22.177058823529414
2024-10-31T03:10:01.113145,0.232666015625,-0.812744140625,0.5517578125,0.9083969465648855,-0.9083969465648855,1.8778625954198473,21.471176470588237
2024-10-31T03:10:01.219052,0.233642578125,-0.817626953125,0.529296875,1.015267175572519,-0.2824427480916031,0.2824427480916031,22.130000000000003
2024-10-31T03:10:01.324941,0.228515625,-0.842041015625,0.494140625,3.7938931297709924,-0.1297709923664122,0.549618320610687,22.835882352941177
2024-10-31T03:10:01.430830,0.2392578125,-0.819091796875,0.532958984375,0.8320610687022901,-1.183206106870229,-0.183206106870229,22.177058823529414
2024-10-31T03:10:01.536717,0.239013671875,-0.818603515625,0.5390625,0.7557251908396947,-0.42748091603053434,0.16030534351145037,22.271176470588237
2024-10-31T03:10:01.642614,0.232177734375,-0.819091796875,0.526123046875,0.8549618320610687,-0.46564885496183206,-0.31297709923664124,22.882941176470588
2024-10-31T03:10:01.748503,0.22802734375,-0.80322265625,0.541259765625,1.183206106870229,-0.648854961832061,-1.2900763358778626,22.31823529411765
2024-10-31T03:10:01.854413,0.234130859375,-0.81689453125,0.541748046875,0.7862595419847328,-0.9465648854961832,-1.2290076335877862,22.177058823529414
2024-10-31T03:10:01.960558,0.234619140625,-0.8173828125,0.538330078125,0.6412213740458015,-0.5801526717557252,-1.3511450381679388,22.93
2024-10-31T03:10:02.066549,0.22900390625,-0.82275390625,0.539794921875,0.6717557251908397,-0.6641221374045801,-1.5877862595419847,22.31823529411765
2024-10-31T03:10:02.172552,0.228759765625,-0.819580078125,0.535888671875,1.0381679389312977,-1.16793893129771,-0.6030534351145038,21.471176470588237
2024-10-31T03:10:02.278520,0.222412109375,-0.81689453125,0.534912109375,1.3435114503816794,-0.6412213740458015,1.0916030534351144,22.177058823529414
2024-10-31T03:10:02.384466,0.233642578125,-0.818603515625,0.5283203125,1.5877862595419847,-0.42748091603053434,1.0610687022900764,22.271176470588237
2024-10-31T03:10:02.490559,0.236083984375,-0.81591796875,0.545166015625,1.5038167938931297,-0.8015267175572519,0.08396946564885496,21.471176470588237
2024-10-31T03:10:02.596556,0.228515625,-0.8154296875,0.533447265625,1.0229007633587786,-1.213740458015267,0.6946564885496184,22.93
2024-10-31T03:10:02.702579,0.236083984375,-0.822021484375,0.5341796875,0.8625954198473282,-0.8015267175572519,0.21374045801526717,21.471176470588237
2024-10-31T03:10:02.808599,0.234375,-0.81689453125,0.54541015625,1.015267175572519,-0.7099236641221374,0.11450381679389313,22.224117647058826
2024-10-31T03:10:02.914627,0.224853515625,-0.815185546875,0.561279296875,1.015267175572519,-0.8015267175572519,-0.6412213740458015,21.51823529411765
2024-10-31T03:10:03.020642,0.23095703125,-0.817138671875,0.542236328125,0.7786259541984732,-0.8702290076335878,-0.40458015267175573,21.51823529411765
2024-10-31T03:10:03.126664,0.2265625,-0.8212890625,0.527587890625,1.0305343511450382,-0.4961832061068702,0.22900763358778625,22.31823529411765
2024-10-31T03:10:03.232691,0.22607421875,-0.81298828125,0.54296875,1.0916030534351144,-0.9312977099236641,0.4732824427480916,22.271176470588237
2024-10-31T03:10:03.338726,0.220458984375,-0.81494140625,0.53955078125,1.0687022900763359,-0.9007633587786259,-0.12213740458015267,22.177058823529414
2024-10-31T03:10:03.444747,0.232177734375,-0.81689453125,0.540771484375,0.6717557251908397,-0.5648854961832062,-0.3435114503816794,22.93
2024-10-31T03:10:03.550801,0.229736328125,-0.81884765625,0.539794921875,0.7175572519083969,-0.5267175572519084,-0.09923664122137404,22.882941176470588
2024-10-31T03:10:03.657211,0.233642578125,-0.8173828125,0.546630859375,0.816793893129771,-0.648854961832061,-0.5572519083969466,22.93
2024-10-31T03:10:03.763491,0.240234375,-0.820068359375,0.5400390625,0.6106870229007634,-0.9618320610687023,-0.8320610687022901,22.177058823529414
2024-10-31T03:10:03.869493,0.232666015625,-0.814453125,0.5400390625,0.4961832061068702,-0.46564885496183206,-0.4351145038167939,21.471176470588237
2024-10-31T03:10:03.975433,0.22900390625,-0.82373046875,0.5283203125,0.7251908396946565,-0.5801526717557252,-1.9236641221374047,22.271176470588237
2024-10-31T03:10:04.081385,0.22021484375,-0.819091796875,0.541259765625,1.1450381679389312,-0.6946564885496184,-0.5572519083969466,21.56529411764706
2024-10-31T03:10:04.187342,0.231201171875,-0.818359375,0.532470703125,0.8778625954198473,-0.9312977099236641,-0.46564885496183206,22.93
2024-10-31T03:10:04.293318,0.225341796875,-0.8212890625,0.53369140625,0.9312977099236641,-0.31297709923664124,-0.12213740458015267,21.471176470588237
2024-10-31T03:10:04.399365,0.2314453125,-0.81591796875,0.54150390625,1.0534351145038168,-0.7099236641221374,0.19083969465648856,22.130000000000003
2024-10-31T03:10:04.507440,0.2333984375,-0.8173828125,0.558837890625,1.381679389312977,-0.5801526717557252,0.5801526717557252,21.471176470588237
2024-10-31T03:10:04.613426,0.230224609375,-0.82177734375,0.535400390625,1.1603053435114503,-0.7786259541984732,-0.21374045801526717,22.177058823529414
2024-10-31T03:10:04.723336,0.232666015625,-0.8173828125,0.545166015625,1.3358778625954197,-0.5114503816793893,-0.05343511450381679,21.471176470588237
2024-10-31T03:10:04.829584,0.2314453125,-0.82177734375,0.534912109375,1.1145038167938932,-0.7709923664122137,-0.12213740458015267,21.51823529411765
2024-10-31T03:10:04.936466,0.232666015625,-0.828125,0.539794921875,0.7633587786259542,-0.549618320610687,-0.7175572519083969,22.224117647058826
2024-10-31T03:10:05.042844,0.232666015625,-0.81591796875,0.5380859375,0.8320610687022901,-0.5648854961832062,-0.1297709923664122,21.471176470588237
2024-10-31T03:10:05.148833,0.229736328125,-0.817138671875,0.539794921875,1.1068702290076335,-0.6717557251908397,-0.08396946564885496,21.471176470588237
2024-10-31T03:10:05.254799,0.23388671875,-0.822021484375,0.53564453125,1.1374045801526718,-0.3969465648854962,0.5877862595419847,22.177058823529414
2024-10-31T03:10:05.360765,0.231201171875,-0.8193359375,0.532958984375,0.9847328244274809,-0.8015267175572519,-0.8931297709923665,22.31823529411765
2024-10-31T03:10:05.466723,0.233642578125,-0.818359375,0.544921875,1.1374045801526718,-0.5648854961832062,0.8015267175572519,22.93
2024-10-31T03:10:05.572642,0.223388671875,-0.818359375,0.53857421875,1.2442748091603053,-0.6106870229007634,-0.16030534351145037,22.882941176470588
2024-10-31T03:10:05.678534,0.228759765625,-0.8193359375,0.536376953125,0.8320610687022901,-0.7099236641221374,-0.9770992366412213,21.471176470588237
2024-10-31T03:10:05.784427,0.2294921875,-0.81640625,0.5400390625,0.6106870229007634,-0.6564885496183206,-0.4580152671755725,22.177058823529414
2024-10-31T03:10:05.890317,0.227783203125,-0.818359375,0.529296875,1.0610687022900764,-0.6259541984732825,-0.10687022900763359,22.93
2024-10-31T03:10:05.996213,0.23193359375,-0.816650390625,0.542236328125,1.1908396946564885,-1.2213740458015268,-1.5725190839694656,22.177058823529414
2024-10-31T03:10:06.102123,0.2314453125,-0.815185546875,0.540283203125,1.0916030534351144,-0.6030534351145038,-0.4351145038167939,21.471176470588237
2024-10-31T03:10:06.208076,0.2314453125,-0.817138671875,0.534912109375,1.2366412213740459,-0.7633587786259542,0.7862595419847328,22.177058823529414
2024-10-31T03:10:06.314083,0.236572265625,-0.817626953125,0.54345703125,0.6183206106870229,-0.12213740458015267,-1.5038167938931297,22.224117647058826
2024-10-31T03:10:06.420045,0.230712890625,-0.819580078125,0.531494140625,-0.11450381679389313,-0.6564885496183206,-2.480916030534351,22.224117647058826
2024-10-31T03:10:06.525943,0.2373046875,-0.81787109375,0.542236328125,-0.4198473282442748,-0.42748091603053434,-2.1068702290076335,21.471176470588237
2024-10-31T03:10:06.631841,0.22314453125,-0.8232421875,0.53173828125,0.4351145038167939,-0.4961832061068702,-1.0229007633587786,22.224117647058826
2024-10-31T03:10:06.737764,0.22705078125,-0.8251953125,0.534423828125,1.1984732824427482,-0.8091603053435115,-0.6030534351145038,22.93
2024-10-31T03:10:06.843684,0.233154296875,-0.817626953125,0.5400390625,1.2061068702290076,-0.7404580152671756,1.816793893129771,21.471176470588237
2024-10-31T03:10:06.949588,0.22802734375,-0.8173828125,0.54638671875,1.3969465648854962,-0.6641221374045801,0.8244274809160306,22.177058823529414
2024-10-31T03:10:07.055493,0.23046875,-0.819580078125,0.54443359375,1.4274809160305344,-0.6030534351145038,0.2595419847328244,22.93
2024-10-31T03:10:07.161402,0.231201171875,-0.8134765625,0.5380859375,1.0305343511450382,-0.9923664122137404,-0.8549618320610687,22.31823529411765
2024-10-31T03:10:07.267305,0.230712890625,-0.816162109375,0.547119140625,0.7099236641221374,-0.6641221374045801,-0.2595419847328244,22.271176470588237
2024-10-31T03:10:07.373199,0.232421875,-0.815673828125,0.529296875,1.0,-0.549618320610687,0.2900763358778626,22.224117647058826
2024-10-31T03:10:07.479096,0.22607421875,-0.818603515625,0.541259765625,1.1755725190839694,-0.6106870229007634,-0.816793893129771,21.471176470588237
2024-10-31T03:10:07.585017,0.234130859375,-0.822021484375,0.54443359375,1.0458015267175573,-0.9083969465648855,-0.16030534351145037,22.93
2024-10-31T03:10:07.690985,0.232177734375,-0.815673828125,0.54443359375,0.9770992366412213,-0.6946564885496184,0.29770992366412213,21.471176470588237
2024-10-31T03:10:07.796982,0.233154296875,-0.820068359375,0.53173828125,1.1374045801526718,-0.4198473282442748,0.4351145038167939,22.271176470588237
2024-10-31T03:10:07.903018,0.23486328125,-0.82177734375,0.537353515625,1.1984732824427482,-0.8778625954198473,-0.4351145038167939,22.271176470588237
2024-10-31T03:10:08.009056,0.247314453125,-0.8125,0.550048828125,1.099236641221374,-0.8244274809160306,0.4198473282442748,22.93
2024-10-31T03:10:08.115088,0.232177734375,-0.815185546875,0.532470703125,1.0381679389312977,-0.5648854961832062,1.0305343511450382,22.93
2024-10-31T03:10:08.221055,0.235107421875,-0.8193359375,0.545166015625,1.0687022900763359,-0.6946564885496184,-0.44274809160305345,21.471176470588237
2024-10-31T03:10:08.326974,0.232177734375,-0.81298828125,0.541259765625,0.4580152671755725,-0.9923664122137404,-1.2366412213740459,21.471176470588237
2024-10-31T03:10:08.432984,0.2255859375,-0.81640625,0.54296875,0.5419847328244275,-0.6870229007633588,1.8473282442748091,22.224117647058826
2024-10-31T03:10:08.538955,0.232177734375,-0.814453125,0.538330078125,1.0,-0.40458015267175573,0.4122137404580153,22.835882352941177
2024-10-31T03:10:08.644888,0.23583984375,-0.815673828125,0.53662109375,1.251908396946565,-0.7404580152671756,-0.6717557251908397,22.177058823529414
2024-10-31T03:10:08.750788,0.232421875,-0.81494140625,0.53515625,0.8854961832061069,-1.0610687022900764,1.7404580152671756,22.177058823529414
2024-10-31T03:10:08.856696,0.232177734375,-0.827880859375,0.538330078125,0.6946564885496184,-0.7099236641221374,0.4198473282442748,22.93
2024-10-31T03:10:08.962613,0.22900390625,-0.8212890625,0.531982421875,0.9694656488549618,-0.5343511450381679,-0.7175572519083969,21.471176470588237
2024-10-31T03:10:09.068526,0.225830078125,-0.81982421875,0.543212890625,0.5419847328244275,-0.9694656488549618,-1.4580152671755726,22.177058823529414
2024-10-31T03:10:09.174431,0.233642578125,-0.825439453125,0.534423828125,0.366412213740458,-0.648854961832061,-0.6412213740458015,22.882941176470588
2024-10-31T03:10:09.280330,0.2333984375,-0.828125,0.5390625,0.8015267175572519,-0.4351145038167939,-0.17557251908396945,22.224117647058826
2024-10-31T03:10:09.386234,0.233642578125,-0.817626953125,0.533935546875,1.1068702290076335,-0.6641221374045801,-1.0076335877862594,22.93
2024-10-31T03:10:09.492132,0.23046875,-0.81103515625,0.55126953125,0.7786259541984732,-0.9923664122137404,-0.6183206106870229,22.271176470588237
2024-10-31T03:10:09.598021,0.232421875,-0.81640625,0.540771484375,1.2748091603053435,-0.7480916030534351,0.8854961832061069,22.224117647058826
2024-10-31T03:10:09.703920,0.23779296875,-0.816162109375,0.530517578125,0.6259541984732825,-1.282442748091603,-0.8091603053435115,21.471176470588237
2024-10-31T03:10:09.809822,0.22607421875,-0.814697265625,0.541015625,0.35877862595419846,-1.0,-0.0916030534351145,22.271176470588237
2024-10-31T03:10:09.915795,0.229248046875,-0.822265625,0.552490234375,0.2366412213740458,-0.8854961832061069,-0.48854961832061067,21.471176470588237
2024-10-31T03:10:10.021702,0.22900390625,-0.815185546875,0.541748046875,0.8549618320610687,-0.015267175572519083,-0.7175572519083969,22.93
2024-10-31T03:10:10.127605,0.230712890625,-0.824462890625,0.544921875,1.3206106870229009,-0.8931297709923665,-0.732824427480916,22.224117647058826
2024-10-31T03:10:10.233533,0.22119140625,-0.81787109375,0.540283203125,1.5267175572519085,-0.8396946564885496,0.2595419847328244,22.224117647058826
2024-10-31T03:10:10.339487,0.227783203125,-0.819091796875,0.524658203125,1.4885496183206106,-0.9389312977099237,1.4732824427480915,21.51823529411765
2024-10-31T03:10:10.445473,0.2236328125,-0.822509765625,0.540771484375,1.717557251908397,-0.8473282442748091,0.3053435114503817,21.51823529411765
2024-10-31T03:10:10.551477,0.22900390625,-0.8173828125,0.541259765625,1.1297709923664123,-1.3129770992366412,-0.816793893129771,22.130000000000003
2024-10-31T03:10:10.657468,0.228759765625,-0.814453125,0.5400390625,0.7099236641221374,-0.9007633587786259,-0.6793893129770993,22.177058823529414
2024-10-31T03:10:10.763428,0.23095703125,-0.819580078125,0.5322265625,0.8778625954198473,-0.8091603053435115,0.6335877862595419,22.93
2024-10-31T03:10:10.869424,0.23046875,-0.8193359375,0.537353515625,1.3206106870229009,-0.816793893129771,-0.6564885496183206,22.882941176470588
2024-10-31T03:10:10.975441,0.229248046875,-0.798095703125,0.55908203125,1.4351145038167938,-1.1374045801526718,0.3435114503816794,22.93
2024-10-31T03:10:11.081452,0.227294921875,-0.8154296875,0.541259765625,1.2900763358778626,-0.7709923664122137,1.1450381679389312,22.271176470588237
2024-10-31T03:10:11.187644,0.2294921875,-0.81591796875,0.531005859375,1.2595419847328244,-0.4961832061068702,0.45038167938931295,22.271176470588237
2024-10-31T03:10:11.293805,0.23291015625,-0.819580078125,0.513427734375,1.6259541984732824,0.20610687022900764,-1.4580152671755726,22.271176470588237
2024-10-31T03:10:11.399787,0.23193359375,-0.806884765625,0.5615234375,0.48091603053435117,-0.5725190839694656,-1.2748091603053435,22.130000000000003
2024-10-31T03:10:11.505728,0.234130859375,-0.8173828125,0.535888671875,1.8473282442748091,-1.3053435114503817,1.8931297709923665,22.271176470588237
2024-10-31T03:10:11.611677,0.23046875,-0.8193359375,0.54638671875,0.2900763358778626,-0.4732824427480916,-0.9007633587786259,22.31823529411765
2024-10-31T03:10:11.717764,0.229248046875,-0.81640625,0.5458984375,0.7938931297709924,-1.0,-1.0076335877862594,22.93
2024-10-31T03:10:11.824011,0.22607421875,-0.81201171875,0.579345703125,1.8015267175572518,-1.1221374045801527,0.8091603053435115,21.51823529411765
2024-10-31T03:10:11.930149,0.224365234375,-0.81982421875,0.52783203125,0.8931297709923665,-0.35877862595419846,0.732824427480916,22.93
2024-10-31T03:10:12.036243,0.22900390625,-0.82080078125,0.522705078125,1.3206106870229009,-0.4351145038167939,-0.6259541984732825,22.271176470588237
2024-10-31T03:10:12.142204,0.2294921875,-0.810546875,0.557373046875,1.0229007633587786,-1.0763358778625953,-0.6564885496183206,22.271176470588237
2024-10-31T03:10:12.248211,0.22509765625,-0.824951171875,0.533203125,0.8931297709923665,-0.5954198473282443,0.732824427480916,21.51823529411765
2024-10-31T03:10:12.354390,0.2314453125,-0.817138671875,0.5400390625,1.3511450381679388,-0.32061068702290074,1.083969465648855,22.224117647058826
2024-10-31T03:10:12.460383,0.231689453125,-0.822509765625,0.544189453125,1.1068702290076335,-0.7557251908396947,-0.648854961832061,22.177058823529414
2024-10-31T03:10:12.566406,0.229248046875,-0.8154296875,0.56201171875,0.6946564885496184,-1.083969465648855,-0.5038167938931297,22.271176470588237
2024-10-31T03:10:12.672398,0.22314453125,-0.81640625,0.540771484375,0.8854961832061069,-0.4351145038167939,0.5114503816793893,21.471176470588237
2024-10-31T03:10:12.778426,0.236572265625,-0.819091796875,0.540771484375,1.213740458015267,-0.5114503816793893,-1.9389312977099236,22.130000000000003
2024-10-31T03:10:12.884646,0.224609375,-0.813232421875,0.539306640625,1.0534351145038168,-1.0610687022900764,-1.4732824427480915,22.177058823529414
2024-10-31T03:10:12.990703,0.229736328125,-0.817626953125,0.5498046875,0.7251908396946565,-1.0076335877862594,1.8091603053435115,21.51823529411765
2024-10-31T03:10:13.096686,0.2314453125,-0.815673828125,0.53564453125,1.0076335877862594,-0.3969465648854962,0.8244274809160306,22.31823529411765
2024-10-31T03:10:13.202706,0.22802734375,-0.81787109375,0.542236328125,1.1603053435114503,-0.44274809160305345,-0.6183206106870229,22.224117647058826
2024-10-31T03:10:13.308679,0.228759765625,-0.81591796875,0.547119140625,1.015267175572519,-0.8854961832061069,-0.5648854961832062,21.51823529411765
2024-10-31T03:10:13.414842,0.22802734375,-0.8134765625,0.546875,0.8854961832061069,-0.7786259541984732,0.7862595419847328,22.271176470588237
2024-10-31T03:10:13.520902,0.23095703125,-0.827392578125,0.528076171875,0.9694656488549618,-0.2900763358778626,-0.007633587786259542,22.93
2024-10-31T03:10:13.626957,0.232666015625,-0.82177734375,0.542236328125,1.1145038167938932,-0.7099236641221374,-0.8091603053435115,22.93
2024-10-31T03:10:13.732977,0.23193359375,-0.816162109375,0.554931640625,0.8778625954198473,-1.1374045801526718,-0.6870229007633588,22.271176470588237
2024-10-31T03:10:13.838980,0.225830078125,-0.81201171875,0.549072265625,0.8625954198473282,-0.5954198473282443,0.4122137404580153,21.471176470588237
2024-10-31T03:10:13.944994,0.23291015625,-0.820556640625,0.53466796875,1.1908396946564885,-0.5572519083969466,-0.29770992366412213,22.271176470588237
2024-10-31T03:10:14.051240,0.232666015625,-0.815185546875,0.5419921875,1.2671755725190839,-1.099236641221374,-1.2595419847328244,22.271176470588237
2024-10-31T03:10:14.157316,0.22509765625,-0.817138671875,0.54833984375,1.0381679389312977,-1.0458015267175573,1.7557251908396947,22.93
2024-10-31T03:10:14.263320,0.22705078125,-0.819091796875,0.52978515625,0.9694656488549618,-0.5725190839694656,0.7938931297709924,22.271176470588237
2024-10-31T03:10:14.369357,0.24462890625,-0.815185546875,0.52734375,1.3511450381679388,-0.5419847328244275,-0.12213740458015267,22.36529411764706
2024-10-31T03:10:14.475364,0.2275390625,-0.821533203125,0.55078125,0.9465648854961832,-1.3969465648854962,-1.4732824427480915,21.56529411764706
2024-10-31T03:10:14.581338,0.222412109375,-0.81591796875,0.537353515625,0.732824427480916,-0.9541984732824428,0.37404580152671757,21.51823529411765
2024-10-31T03:10:14.687589,0.223388671875,-0.816162109375,0.526123046875,1.1526717557251909,-0.26717557251908397,-1.900763358778626,22.93
2024-10-31T03:10:14.794095,0.232177734375,-0.818359375,0.53369140625,1.183206106870229,-0.5267175572519084,-1.099236641221374,22.224117647058826
2024-10-31T03:10:14.900130,0.23095703125,-0.815185546875,0.55078125,1.0076335877862594,-1.16793893129771,-0.9923664122137404,22.224117647058826
2024-10-31T03:10:15.006137,0.231689453125,-0.81591796875,0.548583984375,0.6564885496183206,-1.015267175572519,0.6641221374045801,22.271176470588237
2024-10-31T03:10:15.112120,0.22998046875,-0.816650390625,0.52978515625,1.1068702290076335,-0.366412213740458,0.7022900763358778,22.177058823529414
2024-10-31T03:10:15.218049,0.233642578125,-0.81591796875,0.549072265625,1.2366412213740459,-0.8473282442748091,-0.8549618320610687,22.177058823529414
2024-10-31T03:10:15.324049,0.22509765625,-0.8173828125,0.555419921875,0.9541984732824428,-1.450381679389313,-0.21374045801526717,21.61235294117647
2024-10-31T03:10:15.430078,0.228515625,-0.827392578125,0.5341796875,0.7022900763358778,-0.4961832061068702,0.9923664122137404,22.224117647058826
2024-10-31T03:10:15.536072,0.22802734375,-0.816650390625,0.533203125,1.015267175572519,-1.083969465648855,-1.7633587786259541,21.471176470588237
2024-10-31T03:10:15.642031,0.2294921875,-0.818115234375,0.542724609375,0.8702290076335878,-1.5877862595419847,-1.4351145038167938,22.36529411764706
2024-10-31T03:10:15.747950,0.2294921875,-0.812744140625,0.549560546875,-0.03816793893129771,-1.3587786259541985,-0.29770992366412213,22.93
2024-10-31T03:10:15.853860,0.226318359375,-0.818115234375,0.5234375,0.1297709923664122,-0.22900763358778625,-0.8091603053435115,22.224117647058826
2024-10-31T03:10:15.959776,0.224853515625,-0.81396484375,0.555908203125,-0.015267175572519083,-0.15267175572519084,-6.2748091603053435,22.271176470588237
2024-10-31T03:10:16.065685,0.22314453125,-0.8271484375,0.552490234375,0.5877862595419847,-1.1908396946564885,-1.1450381679389312,22.271176470588237
2024-10-31T03:10:16.171603,0.222412109375,-0.818603515625,0.550537109375,0.22900763358778625,-1.3282442748091603,0.03816793893129771,22.31823529411765
2024-10-31T03:10:16.277520,0.22802734375,-0.8203125,0.538330078125,1.1526717557251909,-0.061068702290076333,0.5190839694656488,22.177058823529414
2024-10-31T03:10:16.383420,0.23095703125,-0.797607421875,0.560791015625,1.2061068702290076,-1.16793893129771,-0.46564885496183206,22.271176470588237
2024-10-31T03:10:16.489341,0.222412109375,-0.81396484375,0.537353515625,0.7709923664122137,-0.8320610687022901,0.4580152671755725,21.471176470588237
2024-10-31T03:10:16.595267,0.23291015625,-0.8203125,0.519287109375,0.8854961832061069,-0.0916030534351145,0.5114503816793893,22.93
2024-10-31T03:10:16.701165,0.2294921875,-0.819091796875,0.561767578125,1.1603053435114503,-0.732824427480916,-1.3129770992366412,22.271176470588237
2024-10-31T03:10:16.807062,0.227294921875,-0.818603515625,0.55224609375,0.816793893129771,-1.1603053435114503,-0.8473282442748091,22.224117647058826
2024-10-31T03:10:16.912949,0.22998046875,-0.813232421875,0.544921875,0.9618320610687023,-0.44274809160305345,1.0687022900763359,22.31823529411765
2024-10-31T03:10:17.018849,0.229248046875,-0.822998046875,0.531005859375,1.4351145038167938,-0.16793893129770993,-0.05343511450381679,22.271176470588237
2024-10-31T03:10:17.124759,0.227783203125,-0.810546875,0.5517578125,1.3587786259541985,-1.3206106870229009,-0.4732824427480916,22.36529411764706
2024-10-31T03:10:17.230656,0.225830078125,-0.81396484375,0.546630859375,0.9847328244274809,-0.9236641221374046,1.0687022900763359,21.56529411764706
2024-10-31T03:10:17.336547,0.22802734375,-0.818359375,0.52294921875,1.2595419847328244,-0.17557251908396945,0.8244274809160306,21.51823529411765
2024-10-31T03:10:17.442439,0.22998046875,-0.818603515625,0.54443359375,1.2442748091603053,-0.9007633587786259,-0.8549618320610687,22.177058823529414
2024-10-31T03:10:17.548332,0.224853515625,-0.8095703125,0.550048828125,0.7633587786259542,-0.9770992366412213,-0.6335877862595419,22.224117647058826
2024-10-31T03:10:17.654228,0.248779296875,-0.81689453125,0.531494140625,0.6259541984732825,-0.20610687022900764,0.4580152671755725,22.93
2024-10-31T03:10:17.760120,0.233154296875,-0.819091796875,0.53515625,1.0,-0.5648854961832062,-0.6946564885496184,22.93
2024-10-31T03:10:17.866012,0.23095703125,-0.802490234375,0.53515625,0.7557251908396947,-1.1374045801526718,-1.5954198473282444,22.224117647058826
2024-10-31T03:10:17.971909,0.226318359375,-0.813720703125,0.537841796875,0.8091603053435115,-0.6946564885496184,0.1984732824427481,22.31823529411765
2024-10-31T03:10:18.077835,0.228271484375,-0.814453125,0.529541015625,0.9923664122137404,-0.2366412213740458,-1.8396946564885497,22.177058823529414
2024-10-31T03:10:18.183786,0.225830078125,-0.81591796875,0.5361328125,1.2748091603053435,-0.8931297709923665,-0.9618320610687023,21.471176470588237
2024-10-31T03:10:18.289740,0.230712890625,-0.8134765625,0.54541015625,0.8931297709923665,-1.2595419847328244,-0.4198473282442748,22.93
2024-10-31T03:10:18.395691,0.225830078125,-0.825439453125,0.517822265625,1.3587786259541985,-0.732824427480916,1.213740458015267,22.224117647058826
2024-10-31T03:10:18.501619,0.22998046875,-0.819091796875,0.524169921875,1.213740458015267,-0.3893129770992366,-0.26717557251908397,22.271176470588237
2024-10-31T03:10:18.607569,0.231201171875,-0.818603515625,0.55029296875,1.099236641221374,-1.2595419847328244,-0.9847328244274809,22.224117647058826
2024-10-31T03:10:18.713564,0.22509765625,-0.817626953125,0.534912109375,0.816793893129771,-0.9007633587786259,0.5419847328244275,22.271176470588237
2024-10-31T03:10:18.819537,0.224609375,-0.820068359375,0.521728515625,1.0610687022900764,-0.22137404580152673,0.366412213740458,22.31823529411765
2024-10-31T03:10:18.925497,0.226806640625,-0.81689453125,0.53515625,1.3511450381679388,-0.8549618320610687,-1.0534351145038168,22.271176470588237
2024-10-31T03:10:19.031465,0.22216796875,-0.816162109375,0.55517578125,0.8625954198473282,-1.4809160305343512,-0.3282442748091603,22.224117647058826
